ACCELEROMETER X (m/s²),ACCELEROMETER Y (m/s²),ACCELEROMETER Z (m/s²),GRAVITY X (m/s²),GRAVITY Y (m/s²),GRAVITY Z (m/s²),LINEAR ACCELERATION X (m/s²),LINEAR ACCELERATION Y (m/s²),LINEAR ACCELERATION Z (m/s²),GYROSCOPE X (rad/s),GYROSCOPE Y (rad/s),GYROSCOPE Z (rad/s),MAGNETIC FIELD X (μT),MAGNETIC FIELD Y (μT),MAGNETIC FIELD Z (μT),ORIENTATION Z (azimuth °),ORIENTATION X (pitch °),ORIENTATION Y (roll °),SOUND LEVEL (dB),Time since start in ms 
0.83502,7.66345,3.98593,-0.0619,8.28601,5.24486,0.71045,-1.76117,-1.93658,0.00226,0.06929,0.0531,5.93,-23.405,-56.004,348.592,-57.875,-1.107,48.8872,15
0.83502,7.66345,3.98593,-0.0619,8.28601,5.24486,0.71045,-1.76117,-1.93658,0.00226,0.06929,0.0531,4.523,-24.419,-56.844,353.026,-57.665,0.676,48.8872,51
1.1033,9.12306,4.17276,-0.05718,8.44488,4.98508,1.16255,0.37286,-0.99256,0.08287,-0.43242,-0.39769,4.523,-24.419,-56.844,353.026,-57.665,0.676,48.8872,86
1.1033,9.12306,4.17276,-0.05718,8.44488,4.98508,1.16255,0.37286,-0.99256,0.08287,-0.43242,-0.39769,4.523,-24.419,-56.844,353.026,-57.665,0.676,48.8872,121
1.1033,9.12306,4.17276,-0.05718,8.44488,4.98508,1.16255,0.37286,-0.99256,0.08287,-0.43242,-0.39769,4.523,-24.419,-56.844,353.026,-57.665,0.676,49.2338,155
1.35654,10.98576,7.42145,0.08074,8.39218,5.07299,1.27224,2.22366,2.12484,-0.56564,-0.19397,-0.13239,4.225,-23.276,-56.203,354.754,-59.445,0.657,49.2338,191
1.35654,10.98576,7.42145,0.08074,8.39218,5.07299,1.27224,2.22366,2.12484,-0.56564,-0.19397,-0.13239,4.225,-23.276,-56.203,354.754,-59.445,0.657,49.2338,226
1.35654,10.98576,7.42145,0.08074,8.39218,5.07299,1.27224,2.22366,2.12484,-0.56564,-0.19397,-0.13239,4.225,-23.276,-56.203,354.754,-59.445,0.657,49.2338,260
1.35654,10.98576,7.42145,0.08074,8.39218,5.07299,1.27224,2.22366,2.12484,-0.56564,-0.19397,-0.13239,4.225,-23.276,-56.203,354.754,-59.445,0.657,49.2338,295
1.40712,7.34181,6.72745,0.16376,7.91026,5.79408,1.23575,-0.93579,0.66429,-0.95415,-0.22166,-0.41357,0.394,-18.765,-57.513,358.671,-58.844,-0.912,49.2338,330
1.40712,7.34181,6.72745,0.16376,7.91026,5.79408,1.23575,-0.93579,0.66429,-0.95415,-0.22166,-0.41357,0.394,-18.765,-57.513,358.671,-58.844,-0.912,49.2338,365
1.40712,7.34181,6.72745,0.16376,7.91026,5.79408,1.23575,-0.93579,0.66429,-0.95415,-0.22166,-0.41357,0.394,-18.765,-57.513,358.671,-58.844,-0.912,49.2338,401
0.3206,6.74986,4.21379,0.16376,7.91026,5.79408,1.23575,-0.93579,0.66429,-0.95415,-0.22166,-0.41357,1.073,-18.84,-58.205,355.751,-53.767,-1.619,49.2338,435
0.3206,6.74986,4.21379,-0.18743,7.82146,5.91269,0.51557,-1.3861,-1.93665,0.43309,-0.15529,-0.7023,1.073,-18.84,-58.205,355.751,-53.767,-1.619,48.8135,471
0.3206,6.74986,4.21379,-0.18743,7.82146,5.91269,0.51557,-1.3861,-1.93665,0.43309,-0.15529,-0.7023,1.073,-18.84,-58.205,355.751,-53.767,-1.619,48.8135,506
0.3206,6.74986,4.21379,-0.18743,7.82146,5.91269,0.51557,-1.3861,-1.93665,0.43309,-0.15529,-0.7023,1.073,-18.84,-58.205,355.751,-53.767,-1.619,48.8135,541
-0.66232,7.36598,4.80862,-0.18743,7.82146,5.91269,0.51557,-1.3861,-1.93665,0.43309,-0.15529,-0.7023,1.073,-18.84,-58.205,355.751,-53.767,-1.619,48.8135,575
-0.66232,7.36598,4.80862,-0.85333,7.99588,5.61321,0.21938,-0.89579,-0.99124,0.1075,0.6844,-0.22787,3.893,-21.071,-57.863,356.329,-52.898,1.816,48.8135,612
-0.66232,7.36598,4.80862,-0.85333,7.99588,5.61321,0.21938,-0.89579,-0.99124,0.1075,0.6844,-0.22787,3.893,-21.071,-57.863,356.329,-52.898,1.816,48.8135,645
-0.66232,7.36598,4.80862,-0.85333,7.99588,5.61321,0.21938,-0.89579,-0.99124,0.1075,0.6844,-0.22787,3.893,-21.071,-57.863,356.329,-52.898,1.816,48.8135,680
-2.6804,10.14813,9.71819,-1.83114,7.67282,5.82625,-0.77178,2.15063,3.6454,-0.01913,0.38571,-0.18083,8.417,-16.884,-57.442,15.618,-51.482,17.447,48.8135,716
-2.6804,10.14813,9.71819,-1.83114,7.67282,5.82625,-0.77178,2.15063,3.6454,-0.01913,0.38571,-0.18083,8.417,-16.884,-57.442,15.618,-51.482,17.447,48.8135,750
-2.6804,10.14813,9.71819,-1.83114,7.67282,5.82625,-0.77178,2.15063,3.6454,-0.01913,0.38571,-0.18083,8.417,-16.884,-57.442,15.618,-51.482,17.447,50.2447,785
-2.6804,10.14813,9.71819,-1.83114,7.67282,5.82625,-0.77178,2.15063,3.6454,-0.01913,0.38571,-0.18083,8.417,-16.884,-57.442,15.618,-51.482,17.447,50.2447,820
-2.45944,8.28163,5.71045,-1.83114,7.67282,5.82625,-0.77178,2.15063,3.6454,-0.01913,0.38571,-0.18083,7.332,-19.403,-58.569,18.022,-51.482,17.447,50.2447,856
-2.45944,8.28163,5.71045,-1.77071,7.80649,5.66513,-0.60653,0.11275,-0.21767,-0.34064,-0.56865,-0.05135,7.332,-19.403,-58.569,18.022,-51.482,17.447,50.2447,891
-2.45944,8.28163,5.71045,-1.77071,7.80649,5.66513,-0.60653,0.11275,-0.21767,-0.34064,-0.56865,-0.05135,7.332,-19.403,-58.569,18.022,-51.482,17.447,50.2447,925
-2.45944,8.28163,5.71045,-1.77071,7.80649,5.66513,-0.60653,0.11275,-0.21767,-0.34064,-0.56865,-0.05135,7.332,-19.403,-58.569,18.022,-51.482,17.447,50.2447,960
-0.99437,5.35672,3.02019,-1.35882,8.02584,5.46899,0.41447,-2.96457,-2.65013,0.09917,0.08638,0.23817,5.064,-20.728,-57.19,21.049,-52.754,17.357,50.2447,995
-0.99437,5.35672,3.02019,-1.35882,8.02584,5.46899,0.41447,-2.96457,-2.65013,0.09917,0.08638,0.23817,5.064,-20.728,-57.19,21.049,-52.754,17.357,50.2447,1031
-0.99437,5.35672,3.02019,-1.35882,8.02584,5.46899,0.41447,-2.96457,-2.65013,0.09917,0.08638,0.23817,5.064,-20.728,-57.19,21.049,-52.754,17.357,50.2447,1065
-0.99437,5.35672,3.02019,-1.35882,8.02584,5.46899,0.41447,-2.96457,-2.65013,0.09917,0.08638,0.23817,5.064,-20.728,-57.19,21.049,-52.754,17.357,50.0122,1100
-0.53111,7.66856,4.55124,-1.01587,8.15168,5.35617,0.51559,-0.73052,-0.96749,0.00571,-0.14877,0.15714,2.643,-21.379,-56.059,12.237,-56.226,10.739,50.0122,1136
-0.53111,7.66856,4.55124,-1.01587,8.15168,5.35617,0.51559,-0.73052,-0.96749,0.00571,-0.14877,0.15714,2.643,-21.379,-56.059,12.237,-56.226,10.739,50.0122,1170
-0.53111,7.66856,4.55124,-1.01587,8.15168,5.35617,0.51559,-0.73052,-0.96749,0.00571,-0.14877,0.15714,2.643,-21.379,-56.059,12.237,-56.226,10.739,50.0122,1205
0.40782,10.33252,8.62549,-1.01587,8.15168,5.35617,0.51559,-0.73052,-0.96749,0.00571,-0.14877,0.15714,0.597,-16.864,-59.476,14.437,-56.226,10.739,50.0122,1241
0.40782,10.33252,8.62549,-0.65118,7.74214,5.98377,1.08406,2.29246,2.41146,-0.81671,-0.85757,0.18829,0.597,-16.864,-59.476,14.437,-56.226,10.739,50.0122,1275
0.40782,10.33252,8.62549,-0.65118,7.74214,5.98377,1.08406,2.29246,2.41146,-0.81671,-0.85757,0.18829,0.597,-16.864,-59.476,14.437,-56.226,10.739,50.0122,1310
0.40782,10.33252,8.62549,-0.65118,7.74214,5.98377,1.08406,2.29246,2.41146,-0.81671,-0.85757,0.18829,0.597,-16.864,-59.476,14.437,-56.226,10.739,50.0122,1346
0.81526,7.57533,7.36894,-0.26592,7.17452,6.68026,1.09313,0.07857,0.38864,-0.65503,-0.46114,-0.04869,-2.252,-14.188,-60.211,12.475,-52.137,6.211,50.0122,1387
0.81526,7.57533,7.36894,-0.26592,7.17452,6.68026,1.09313,0.07857,0.38864,-0.65503,-0.46114,-0.04869,-2.252,-14.188,-60.211,12.475,-52.137,6.211,50.0122,1416
0.81526,7.57533,7.36894,-0.26592,7.17452,6.68026,1.09313,0.07857,0.38864,-0.65503,-0.46114,-0.04869,-2.252,-14.188,-60.211,12.475,-52.137,6.211,51.0565,1451
0.81526,7.57533,7.36894,-0.26592,7.17452,6.68026,1.09313,0.07857,0.38864,-0.65503,-0.46114,-0.04869,-2.252,-14.188,-60.211,12.475,-52.137,6.211,51.0565,1486
0.67339,4.98741,5.80414,0.28196,6.6722,7.18141,0.3811,-1.92906,-1.64017,-0.53409,0.59094,-0.16618,-2.615,-11.629,-59.848,1.15,-42.873,-2.248,51.0565,1520
0.67339,4.98741,5.80414,0.28196,6.6722,7.18141,0.3811,-1.92906,-1.64017,-0.53409,0.59094,-0.16618,-2.615,-11.629,-59.848,1.15,-42.873,-2.248,51.0565,1555
0.67339,4.98741,5.80414,0.28196,6.6722,7.18141,0.3811,-1.92906,-1.64017,-0.53409,0.59094,-0.16618,-2.615,-11.629,-59.848,1.15,-42.873,-2.248,51.0565,1590
0.67339,4.98741,5.80414,0.28196,6.6722,7.18141,0.3811,-1.92906,-1.64017,-0.53409,0.59094,-0.16618,-2.615,-11.629,-59.848,1.15,-42.873,-2.248,51.0565,1626
-0.47932,6.73015,6.75084,-0.36309,6.995,6.86357,-0.1042,-0.49671,-0.34023,0.43391,1.09003,0.04434,0.772,-14.038,-59.506,353.727,-42.873,-2.248,51.0565,1661
-0.47932,6.73015,6.75084,-0.36309,6.995,6.86357,-0.1042,-0.49671,-0.34023,0.43391,1.09003,0.04434,0.772,-14.038,-59.506,353.727,-42.873,-2.248,51.0565,1697
-0.47932,6.73015,6.75084,-0.36309,6.995,6.86357,-0.1042,-0.49671,-0.34023,0.43391,1.09003,0.04434,0.772,-14.038,-59.506,353.727,-42.873,-2.248,51.0565,1730
-0.47932,6.73015,6.75084,-0.36309,6.995,6.86357,-0.1042,-0.49671,-0.34023,0.43391,1.09003,0.04434,0.772,-14.038,-59.506,353.727,-42.873,-2.248,49.8539,1766
-1.50102,8.87697,10.19682,-0.78448,7.34401,6.4514,-0.68418,1.22999,3.47927,0.75298,0.09494,0.44954,2.4,-17.22,-58.983,8.907,-48.493,6.933,49.8539,1800
-1.50102,8.87697,10.19682,-0.78448,7.34401,6.4514,-0.68418,1.22999,3.47927,0.75298,0.09494,0.44954,2.4,-17.22,-58.983,8.907,-48.493,6.933,49.8539,1837
-1.50102,8.87697,10.19682,-0.78448,7.34401,6.4514,-0.68418,1.22999,3.47927,0.75298,0.09494,0.44954,2.4,-17.22,-58.983,8.907,-48.493,6.933,49.8539,1870
-0.99243,7.97243,6.96335,-0.78448,7.34401,6.4514,-0.68418,1.22999,3.47927,0.75298,0.09494,0.44954,2.4,-17.22,-58.983,8.907,-48.493,6.933,49.8539,1906
-0.99243,7.97243,6.96335,-1.0988,7.62382,6.06964,0.15778,-0.0081,0.60972,-0.01079,0.74306,0.39578,5.762,-19.923,-58.498,7.73,-51.024,10.261,49.8539,1940
-0.99243,7.97243,6.96335,-1.0988,7.62382,6.06964,0.15778,-0.0081,0.60972,-0.01079,0.74306,0.39578,5.762,-19.923,-58.498,7.73,-51.024,10.261,49.8539,1975
-0.99243,7.97243,6.96335,-1.0988,7.62382,6.06964,0.15778,-0.0081,0.60972,-0.01079,0.74306,0.39578,5.762,-19.923,-58.498,7.73,-51.024,10.261,49.8539,2010
0.30269,5.73581,4.54861,-1.04123,7.7616,5.90286,1.38318,-2.31848,-1.57685,0.30949,0.36513,0.32899,6.854,-20.699,-57.063,5.944,-51.024,10.261,49.8539,2046
0.30269,5.73581,4.54861,-1.04123,7.7616,5.90286,1.38318,-2.31848,-1.57685,0.30949,0.36513,0.32899,6.854,-20.699,-57.063,5.944,-51.024,10.261,49.8539,2081
0.30269,5.73581,4.54861,-1.04123,7.7616,5.90286,1.38318,-2.31848,-1.57685,0.30949,0.36513,0.32899,6.854,-20.699,-57.063,5.944,-51.024,10.261,50.0342,2115
0.30269,5.73581,4.54861,-1.04123,7.7616,5.90286,1.38318,-2.31848,-1.57685,0.30949,0.36513,0.32899,6.854,-20.699,-57.063,5.944,-51.024,10.261,50.0342,2151
-0.50063,6.78531,2.0433,-1.04123,7.7616,5.90286,1.38318,-2.31848,-1.57685,0.30949,0.36513,0.32899,6.854,-20.699,-57.063,5.944,-51.024,10.261,50.0342,2186
-0.50063,6.78531,2.0433,-0.99294,8.05679,5.50206,0.51846,-1.48365,-3.60365,-0.32028,0.03813,0.11255,7.315,-20.467,-57.59,5.339,-55.242,10.23,50.0342,2220
-0.50063,6.78531,2.0433,-0.99294,8.05679,5.50206,0.51846,-1.48365,-3.60365,-0.32028,0.03813,0.11255,7.315,-20.467,-57.59,5.339,-55.242,10.23,50.0342,2256
-0.50063,6.78531,2.0433,-0.99294,8.05679,5.50206,0.51846,-1.48365,-3.60365,-0.32028,0.03813,0.11255,7.315,-20.467,-57.59,5.339,-55.242,10.23,50.0342,2290
0.47499,8.61685,12.13135,-0.80199,7.0844,6.73339,1.30323,1.30061,5.1776,-1.16713,-0.28847,0.16081,6.664,-13.713,-58.646,0.047,-46.254,6.792,50.0342,2326
0.47499,8.61685,12.13135,-0.80199,7.0844,6.73339,1.30323,1.30061,5.1776,-1.16713,-0.28847,0.16081,6.664,-13.713,-58.646,0.047,-46.254,6.792,50.0342,2361
0.47499,8.61685,12.13135,-0.80199,7.0844,6.73339,1.30323,1.30061,5.1776,-1.16713,-0.28847,0.16081,6.664,-13.713,-58.646,0.047,-46.254,6.792,50.0342,2396
0.47499,8.61685,12.13135,-0.80199,7.0844,6.73339,1.30323,1.30061,5.1776,-1.16713,-0.28847,0.16081,6.664,-13.713,-58.646,0.047,-46.254,6.792,50.2743,2431
3.11127,8.28159,9.61052,-0.10418,6.82263,7.04353,3.22022,1.14634,2.24425,-0.68434,0.04831,-0.27043,5.249,-11.433,-60.715,353.243,-44.084,0.847,50.2743,2467
3.11127,8.28159,9.61052,-0.10418,6.82263,7.04353,3.22022,1.14634,2.24425,-0.68434,0.04831,-0.27043,5.249,-11.433,-60.715,353.243,-44.084,0.847,50.2743,2502
3.11127,8.28159,9.61052,-0.10418,6.82263,7.04353,3.22022,1.14634,2.24425,-0.68434,0.04831,-0.27043,5.249,-11.433,-60.715,353.243,-44.084,0.847,50.2743,2535
-0.23724,5.15239,5.62967,-0.10418,6.82263,7.04353,3.22022,1.14634,2.24425,-0.68434,0.04831,-0.27043,5.249,-11.433,-60.715,353.243,-44.084,0.847,50.2743,2571
-0.23724,5.15239,5.62967,-0.50392,6.77136,7.07567,0.28753,-1.8993,-1.73893,0.66949,0.47978,-0.24538,6.348,-15.065,-60.164,356.796,-43.669,4.074,50.2743,2605
-0.9716,5.44897,4.22322,-0.50392,6.77136,7.07567,0.28753,-1.8993,-1.73893,0.66949,0.47978,-0.24538,6.348,-15.065,-60.164,356.796,-43.669,4.074,50.2743,2641
-0.9716,5.44897,4.22322,-0.50392,6.77136,7.07567,0.28753,-1.8993,-1.73893,0.66949,0.47978,-0.24538,6.348,-15.065,-60.164,356.796,-43.669,4.074,50.2743,2676
-0.9716,5.44897,4.22322,-0.50392,6.77136,7.07567,0.28753,-1.8993,-1.73893,0.66949,0.47978,-0.24538,6.348,-15.065,-60.164,356.796,-43.669,4.074,50.2743,2710
-0.9716,5.44897,4.22322,-0.82981,7.33694,6.45376,-0.20406,-1.40971,-0.72049,0.66827,0.39587,0.35039,8.31,-18.794,-57.155,358.748,-48.431,7.327,49.0152,2747
-0.37785,8.55043,6.24126,-0.82981,7.33694,6.45376,-0.20406,-1.40971,-0.72049,0.66827,0.39587,0.35039,8.31,-18.794,-57.155,358.748,-48.431,7.327,49.0152,2780
-0.37785,8.55043,6.24126,-0.82981,7.33694,6.45376,-0.20406,-1.40971,-0.72049,0.66827,0.39587,0.35039,8.31,-18.794,-57.155,358.748,-48.431,7.327,49.0152,2815
-0.37785,8.55043,6.24126,-0.82981,7.33694,6.45376,-0.20406,-1.40971,-0.72049,-0.04662,0.59177,-0.10326,8.31,-18.794,-57.155,358.748,-48.431,7.327,49.0152,2850
-0.37785,8.55043,6.24126,-0.96813,7.74568,5.93613,0.36651,2.62131,1.78166,-0.04662,0.59177,-0.10326,10.751,-20.081,-57.716,357.465,-52.17,9.263,49.0152,2886
-1.79771,9.72595,8.48694,-0.96813,7.74568,5.93613,0.36651,2.62131,1.78166,-0.04662,0.59177,-0.10326,10.751,-20.081,-57.716,357.465,-52.17,9.263,49.0152,2920
-1.79771,9.72595,8.48694,-0.96813,7.74568,5.93613,0.36651,2.62131,1.78166,-0.04662,0.59177,-0.10326,10.751,-20.081,-57.716,357.465,-52.17,9.263,49.0152,2955
-1.79771,9.72595,8.48694,-1.0636,7.45611,6.28058,0.61409,0.35058,0.16383,-0.3665,-0.17239,0.03171,10.088,-17.007,-57.841,359.702,-49.492,9.612,49.0152,2990
-1.79771,9.72595,8.48694,-1.0636,7.45611,6.28058,0.61409,0.35058,0.16383,-0.3665,-0.17239,0.03171,10.088,-17.007,-57.841,359.702,-49.492,9.612,49.0152,3025
0.05048,5.89731,6.10407,-1.0636,7.45611,6.28058,0.61409,0.35058,0.16383,-0.3665,-0.17239,0.03171,10.088,-17.007,-57.841,359.702,-49.492,9.612,50.4243,3060
0.05048,5.89731,6.10407,-1.0636,7.45611,6.28058,0.61409,0.35058,0.16383,-0.3665,-0.17239,0.03171,10.088,-17.007,-57.841,359.702,-49.492,9.612,50.4243,3095
0.05048,5.89731,6.10407,-0.6467,7.47522,6.31453,0.89622,-2.53898,-1.2414,0.67357,-0.37032,0.36769,8.954,-20.764,-57.477,354.078,-49.664,5.847,50.4243,3130
1.70921,5.32521,4.72401,-0.6467,7.47522,6.31453,0.89622,-2.53898,-1.2414,0.67357,-0.37032,0.36769,8.954,-20.764,-57.477,354.078,-49.664,5.847,50.4243,3165
1.70921,5.32521,4.72401,-0.6467,7.47522,6.31453,0.89622,-2.53898,-1.2414,0.67357,-0.37032,0.36769,8.954,-20.764,-57.477,354.078,-49.664,5.847,50.4243,3201
1.70921,5.32521,4.72401,-0.6467,7.47522,6.31453,0.89622,-2.53898,-1.2414,0.67357,-0.37032,0.36769,8.954,-20.764,-57.477,354.078,-49.664,5.847,50.4243,3236
1.70921,5.32521,4.72401,-1.02257,8.13627,5.37827,2.16112,-0.20669,0.31346,0.75705,0.4649,-1.02525,12.125,-26.109,-55.38,357.303,-56.065,10.765,50.4243,3271
-1.56589,10.76621,6.5192,-1.02257,8.13627,5.37827,2.16112,-0.20669,0.31346,0.75705,0.4649,-1.02525,12.125,-26.109,-55.38,357.303,-56.065,10.765,50.4243,3306
-1.56589,10.76621,6.5192,-1.02257,8.13627,5.37827,2.16112,-0.20669,0.31346,0.75705,0.4649,-1.02525,12.125,-26.109,-55.38,357.303,-56.065,10.765,50.4243,3341
-1.56589,10.76621,6.5192,-1.02257,8.13627,5.37827,2.16112,-0.20669,0.31346,0.75705,0.4649,-1.02525,12.125,-26.109,-55.38,357.303,-56.065,10.765,50.5553,3375
-1.56589,10.76621,6.5192,-1.60198,8.59951,4.43312,-1.75064,2.73292,2.07987,-0.1637,-0.47253,0.72891,10.159,-27.579,-53.822,14.72,-61.271,19.868,50.5553,3410
0.30107,10.00713,7.78072,-1.60198,8.59951,4.43312,-1.75064,2.73292,2.07987,-0.1637,-0.47253,0.72891,10.159,-27.579,-53.822,14.72,-61.271,19.868,50.5553,3445
0.30107,10.00713,7.78072,-1.60198,8.59951,4.43312,-1.75064,2.73292,2.07987,-0.1637,-0.47253,0.72891,10.159,-27.579,-53.822,14.72,-61.271,19.868,50.5553,3481
0.30107,10.00713,7.78072,-0.85188,8.73898,4.36749,2.45843,-0.70466,-0.76561,-4.00E-04,-0.23186,0.0816,10.159,-27.579,-53.822,14.72,-61.271,19.868,50.5553,3519
0.30107,10.00713,7.78072,-0.85188,8.73898,4.36749,2.45843,-0.70466,-0.76561,-4.00E-04,-0.23186,0.0816,9.222,-29.169,-55.055,2.661,-63.015,11.037,50.5553,3550
0.20958,7.1942,3.33841,-0.85188,8.73898,4.36749,2.45843,-0.70466,-0.76561,-4.00E-04,-0.23186,0.0816,9.222,-29.169,-55.055,2.661,-63.015,11.037,50.5553,3586
0.20958,7.1942,3.33841,-0.85188,8.73898,4.36749,2.45843,-0.70466,-0.76561,-4.00E-04,-0.23186,0.0816,9.222,-29.169,-55.055,2.661,-63.015,11.037,50.5553,3621
0.20958,7.1942,3.33841,-0.87723,8.62872,4.57668,0.31617,-1.95851,-2.81217,-0.10303,-0.25548,-0.22054,7.913,-27.269,-55.217,3.965,-61.628,10.851,50.5553,3655
0.20958,7.1942,3.33841,-0.87723,8.62872,4.57668,0.31617,-1.95851,-2.81217,-0.10303,-0.25548,-0.22054,7.913,-27.269,-55.217,3.965,-61.628,10.851,50.5553,3690
-1.23012,7.36029,2.53127,-0.87723,8.62872,4.57668,0.31617,-1.95851,-2.81217,-0.10303,-0.25548,-0.22054,7.913,-27.269,-55.217,3.965,-61.628,10.851,51.2886,3725
-1.23012,7.36029,2.53127,-0.87723,8.62872,4.57668,0.31617,-1.95851,-2.81217,-0.10303,-0.25548,-0.22054,7.913,-27.269,-55.217,3.965,-61.628,10.851,51.2886,3760
-1.23012,7.36029,2.53127,-0.82554,8.54781,4.73538,-0.90767,0.79223,-1.80588,-0.18588,-0.08037,0.27036,7.913,-27.269,-55.217,3.965,-61.628,10.851,51.2886,3796
2.05171,10.07729,5.65492,-0.82554,8.54781,4.73538,-0.90767,0.79223,-1.80588,-0.18588,-0.08037,0.27036,6.32,-25.237,-55.296,5.628,-60.649,9.889,51.2886,3831
2.05171,10.07729,5.65492,-0.82554,8.54781,4.73538,-0.90767,0.79223,-1.80588,-0.18588,-0.08037,0.27036,6.32,-25.237,-55.296,5.628,-60.649,9.889,51.2886,3865
2.05171,10.07729,5.65492,-0.82554,8.54781,4.73538,-0.90767,0.79223,-1.80588,-0.18588,-0.08037,0.27036,6.32,-25.237,-55.296,5.628,-60.649,9.889,51.2886,3900
2.05171,10.07729,5.65492,-1.05749,8.03182,5.52648,1.83774,1.31736,5.27662,-0.13947,-0.15448,-0.77663,6.32,-25.237,-55.296,5.628,-60.649,9.889,51.2886,3936
-3.04407,8.82564,9.41893,-1.05749,8.03182,5.52648,1.83774,1.31736,5.27662,-0.13947,-0.15448,-0.77663,8.539,-21.548,-57.855,3.33,-54.987,10.833,51.2886,3970
-3.04407,8.82564,9.41893,-1.05749,8.03182,5.52648,1.83774,1.31736,5.27662,-0.13947,-0.15448,-0.77663,8.539,-21.548,-57.855,3.33,-54.987,10.833,51.2886,4005
-3.04407,8.82564,9.41893,-1.05749,8.03182,5.52648,1.83774,1.31736,5.27662,-0.13947,-0.15448,-0.77663,8.539,-21.548,-57.855,3.33,-54.987,10.833,51.2886,4040
-3.04407,8.82564,9.41893,-1.05749,8.03182,5.52648,1.83774,1.31736,5.27662,-0.13947,-0.15448,-0.77663,8.539,-21.548,-57.855,3.33,-54.987,10.833,51.2886,4076
-3.04407,8.82564,9.41893,-1.05749,8.03182,5.52648,1.83774,1.31736,5.27662,-0.13947,-0.15448,-0.77663,8.539,-21.548,-57.855,3.33,-54.987,10.833,51.2886,4111
-1.79848,8.04352,6.7898,-1.41574,7.86896,5.67852,-0.32097,-0.16878,0.86352,-0.17978,-0.39984,0.06694,10.497,-22.852,-59.261,2.026,-54.987,10.833,51.2886,4146
-1.79848,8.04352,6.7898,-1.41574,7.86896,5.67852,-0.32097,-0.16878,0.86352,-0.17978,-0.39984,0.06694,10.497,-22.852,-59.261,2.026,-54.987,10.833,51.7379,4181
-1.79848,8.04352,6.7898,-1.41574,7.86896,5.67852,-0.32097,-0.16878,0.86352,-0.17978,-0.39984,0.06694,10.497,-22.852,-59.261,2.026,-54.987,10.833,51.7379,4215
0.02022,6.38089,3.94803,-0.82137,8.2978,5.16162,0.86741,-2.17775,-1.37585,-0.17978,-0.39984,0.06694,10.497,-22.852,-59.261,2.026,-54.987,10.833,51.7379,4250
0.02022,6.38089,3.94803,-0.82137,8.2978,5.16162,0.86741,-2.17775,-1.37585,-0.17978,-0.39984,0.06694,8.063,-27.167,-56.529,1.765,-57.794,9.042,51.7379,4285
0.02022,6.38089,3.94803,-0.82137,8.2978,5.16162,0.86741,-2.17775,-1.37585,0.76561,0.82776,-0.18329,8.063,-27.167,-56.529,1.765,-57.794,9.042,51.7379,4320
0.02022,6.38089,3.94803,-0.82137,8.2978,5.16162,0.86741,-2.17775,-1.37585,0.76561,0.82776,-0.18329,8.063,-27.167,-56.529,1.765,-57.794,9.042,51.7379,4355
-1.98396,10.28864,3.90871,-1.03384,8.73853,4.32894,-0.91893,1.28643,-0.55085,0.76561,0.82776,-0.18329,8.063,-27.167,-56.529,1.765,-57.794,9.042,51.7379,4390
-1.98396,10.28864,3.90871,-1.03384,8.73853,4.32894,-0.91893,1.28643,-0.55085,0.76561,0.82776,-0.18329,10.741,-27.922,-56.358,3.468,-63.009,13.432,51.7379,4425
-1.98396,10.28864,3.90871,-1.03384,8.73853,4.32894,-0.91893,1.28643,-0.55085,-0.3669,-0.72766,0.06084,10.741,-27.922,-56.358,3.468,-63.009,13.432,51.7379,4461
1.93312,10.75349,8.13957,-1.03384,8.73853,4.32894,-0.91893,1.28643,-0.55085,-0.3669,-0.72766,0.06084,10.741,-27.922,-56.358,3.468,-63.009,13.432,52.8972,4495
1.93312,10.75349,8.13957,-0.35089,8.53924,4.80922,2.29921,1.84453,3.12214,-0.3669,-0.72766,0.06084,10.741,-27.922,-56.358,3.468,-63.009,13.432,52.8972,4530
1.93312,10.75349,8.13957,-0.35089,8.53924,4.80922,2.29921,1.84453,3.12214,-0.3669,-0.72766,0.06084,4.729,-25.812,-58.17,358.842,-60.547,4.173,52.8972,4566
1.93312,10.75349,8.13957,-0.35089,8.53924,4.80922,2.29921,1.84453,3.12214,-0.36121,0.076,0.01135,4.729,-25.812,-58.17,358.842,-60.547,4.173,52.8972,4602
0.7572,7.09345,4.21207,-0.35089,8.53924,4.80922,2.29921,1.84453,3.12214,-0.36121,0.076,0.01135,4.729,-25.812,-58.17,358.842,-60.547,4.173,52.8972,4636
0.7572,7.09345,4.21207,0.03172,8.3932,5.07184,0.72421,-1.63631,-1.06315,-0.36121,0.076,0.01135,4.002,-27.002,-56.529,352.864,-58.856,-0.358,52.8972,4671
0.7572,7.09345,4.21207,0.03172,8.3932,5.07184,0.72421,-1.63631,-1.06315,-0.36121,0.076,0.01135,4.002,-27.002,-56.529,352.864,-58.856,-0.358,52.8972,4706
0.7572,7.09345,4.21207,0.03172,8.3932,5.07184,0.72421,-1.63631,-1.06315,0.15494,0.00169,-0.3649,4.002,-27.002,-56.529,352.864,-58.856,-0.358,52.8972,4740
-0.11276,7.1017,3.82355,0.03172,8.3932,5.07184,0.72421,-1.63631,-1.06315,0.15494,0.00169,-0.3649,4.002,-27.002,-56.529,352.864,-58.856,-0.358,53.0203,4775
-0.11276,7.1017,3.82355,-0.17742,8.60243,4.70501,0.07034,-1.77603,-1.03203,0.15494,0.00169,-0.3649,5.998,-28.938,-55.141,353.51,-61.307,2.16,53.0203,4811
-0.11276,7.1017,3.82355,-0.17742,8.60243,4.70501,0.07034,-1.77603,-1.03203,0.50844,0.24052,-0.36409,5.998,-28.938,-55.141,353.51,-61.307,2.16,53.0203,4846
-0.11276,7.1017,3.82355,-0.17742,8.60243,4.70501,0.07034,-1.77603,-1.03203,0.50844,0.24052,-0.36409,5.998,-28.938,-55.141,353.51,-61.307,2.16,53.0203,4881
-0.77548,10.65741,5.73036,-0.75051,8.74311,4.3778,8.70E-04,1.61325,1.20182,0.50844,0.24052,-0.36409,5.998,-28.938,-55.141,353.51,-61.307,2.16,53.0203,4916
-0.77548,10.65741,5.73036,-0.75051,8.74311,4.3778,8.70E-04,1.61325,1.20182,0.50844,0.24052,-0.36409,8.531,-29.465,-54.959,0.663,-63.069,9.728,53.0203,4950
-0.77548,10.65741,5.73036,-0.75051,8.74311,4.3778,8.70E-04,1.61325,1.20182,1.11644,0.12793,0.21069,8.531,-29.465,-54.959,0.663,-63.069,9.728,53.0203,4985
-0.77548,10.65741,5.73036,-0.75051,8.74311,4.3778,8.70E-04,1.61325,1.20182,1.11644,0.12793,0.21069,8.531,-29.465,-54.959,0.663,-63.069,9.728,53.0203,5020
-1.52985,10.90349,3.3954,-0.85991,8.9267,3.96799,-0.63394,1.6031,-0.7387,1.11644,0.12793,0.21069,8.531,-29.465,-54.959,0.663,-63.069,9.728,53.0203,5055
-1.52985,10.90349,3.3954,-0.85991,8.9267,3.96799,-0.63394,1.6031,-0.7387,1.11644,0.12793,0.21069,6.564,-26.59,-57.036,7.292,-65.543,12.228,53.5631,5091
-1.52985,10.90349,3.3954,-0.85991,8.9267,3.96799,-0.63394,1.6031,-0.7387,-1.29033,-0.65804,-0.12668,6.564,-26.59,-57.036,7.292,-65.543,12.228,53.5631,5125
0.52502,6.58513,3.84879,-0.85991,8.9267,3.96799,-0.63394,1.6031,-0.7387,-1.29033,-0.65804,-0.12668,6.564,-26.59,-57.036,7.292,-65.543,12.228,53.5631,5160
0.52502,6.58513,3.84879,-0.75434,8.3078,5.15576,1.30635,-2.01987,-1.49142,-1.29033,-0.65804,-0.12668,6.564,-26.59,-57.036,7.292,-65.543,12.228,53.5631,5196
0.52502,6.58513,3.84879,-0.75434,8.3078,5.15576,1.30635,-2.01987,-1.49142,-1.29033,-0.65804,-0.12668,3.227,-20.894,-59.142,8.202,-57.904,8.324,53.5631,5230
0.27942,5.45731,4.20873,-0.75434,8.3078,5.15576,1.30635,-2.01987,-1.49142,-0.95781,-0.46153,-0.10936,3.227,-20.894,-59.142,8.202,-57.904,8.324,53.5631,5265
0.27942,5.45731,4.20873,-0.75434,8.3078,5.15576,1.30635,-2.01987,-1.49142,-0.95781,-0.46153,-0.10936,3.227,-20.894,-59.142,8.202,-57.904,8.324,53.5631,5300
0.27942,5.45731,4.20873,-0.67001,7.74665,5.97587,0.82897,-1.59542,-0.08811,-0.95781,-0.46153,-0.10936,3.227,-20.894,-59.142,8.202,-57.904,8.324,53.5631,5335
-0.41962,7.64226,5.3555,-0.67001,7.74665,5.97587,0.82897,-1.59542,-0.08811,-0.95781,-0.46153,-0.10936,3.54,-20.01,-57.945,4.231,-52.18,6.397,53.5631,5371
-0.41962,7.64226,5.3555,-0.67001,7.74665,5.97587,0.82897,-1.59542,-0.08811,0.73955,0.54167,0.28909,3.54,-20.01,-57.945,4.231,-52.18,6.397,53.5631,5405
-0.41962,7.64226,5.3555,-0.67001,7.74665,5.97587,0.82897,-1.59542,-0.08811,0.73955,0.54167,0.28909,3.54,-20.01,-57.945,4.231,-52.18,6.397,55.1619,5440
-0.41962,7.64226,5.3555,-0.65341,7.87427,5.80855,0.08146,1.21071,-1.42187,0.73955,0.54167,0.28909,1.448,-17.422,-61.475,8.575,-53.413,6.418,55.1619,5475
1.41524,9.90578,10.34518,-0.65341,7.87427,5.80855,0.08146,1.21071,-1.42187,-0.8727,-1.81886,0.2103,1.448,-17.422,-61.475,8.575,-53.413,6.418,55.1619,5511
1.41524,9.90578,10.34518,-0.65341,7.87427,5.80855,0.08146,1.21071,-1.42187,-0.8727,-1.81886,0.2103,1.448,-17.422,-61.475,8.575,-53.413,6.418,55.1619,5545
1.41524,9.90578,10.34518,0.32059,7.01259,6.84771,4.45542,1.0804,5.23164,-0.8727,-1.81886,0.2103,1.448,-17.422,-61.475,8.575,-53.413,6.418,55.1619,5580
1.41524,9.90578,10.34518,0.32059,7.01259,6.84771,4.45542,1.0804,5.23164,-0.8727,-1.81886,0.2103,-0.508,-10.13,-61.536,357.085,-45.65,-2.68,55.1619,5615
1.65753,7.36585,8.05907,0.32059,7.01259,6.84771,4.45542,1.0804,5.23164,-0.84949,-0.2178,-0.63063,-0.508,-10.13,-61.536,357.085,-45.65,-2.68,55.1619,5650
1.65753,7.36585,8.05907,0.32059,7.01259,6.84771,4.45542,1.0804,5.23164,-0.84949,-0.2178,-0.63063,-0.508,-10.13,-61.536,357.085,-45.65,-2.68,55.1619,5685
1.65753,7.36585,8.05907,0.07115,6.30935,7.50716,0.30442,-0.13416,-1.21644,-0.84949,-0.2178,-0.63063,-0.508,-10.13,-61.536,357.085,-45.65,-2.68,55.1619,5721
1.65753,7.36585,8.05907,0.07115,6.30935,7.50716,0.30442,-0.13416,-1.21644,-0.84949,-0.2178,-0.63063,-3.636,-9.619,-61.272,6.178,-40.044,-0.543,57.5226,5756
-0.24216,5.86969,5.18715,0.07115,6.30935,7.50716,0.30442,-0.13416,-1.21644,0.04276,-0.21985,-0.56345,-3.636,-9.619,-61.272,6.178,-40.044,-0.543,57.5226,5790
-0.24216,5.86969,5.18715,0.07115,6.30935,7.50716,0.30442,-0.13416,-1.21644,0.04276,-0.21985,-0.56345,-3.636,-9.619,-61.272,6.178,-40.044,-0.543,57.5226,5825
-0.24216,5.86969,5.18715,-0.26123,6.34057,7.47658,-1.05225,-1.60735,-2.07502,0.04276,-0.21985,-0.56345,-3.636,-9.619,-61.272,6.178,-40.044,-0.543,57.5226,5861
-0.24216,5.86969,5.18715,-0.26123,6.34057,7.47658,-1.05225,-1.60735,-2.07502,0.04276,-0.21985,-0.56345,0.244,-12.358,-61.212,4.026,-40.283,2.001,57.5226,5896
-2.04863,4.72643,6.68524,-0.26123,6.34057,7.47658,-1.05225,-1.60735,-2.07502,1.38503,1.12709,0.25652,0.244,-12.358,-61.212,4.026,-40.283,2.001,57.5226,5930
-2.04863,4.72643,6.68524,-0.26123,6.34057,7.47658,-1.05225,-1.60735,-2.07502,1.38503,1.12709,0.25652,0.244,-12.358,-61.212,4.026,-40.283,2.001,57.5226,5966
-2.04863,4.72643,6.68524,-1.27593,7.28247,6.44267,1.61026,-1.52236,-0.1985,1.38503,1.12709,0.25652,0.244,-12.358,-61.212,4.026,-40.283,2.001,57.5226,6000
-2.04863,4.72643,6.68524,-1.27593,7.28247,6.44267,1.61026,-1.52236,-0.1985,1.38503,1.12709,0.25652,6.009,-19.342,-58.133,10.042,-47.954,11.202,57.5226,6036
-5.8101,8.92651,6.07022,-1.27593,7.28247,6.44267,1.61026,-1.52236,-0.1985,0.7204,-0.79568,-0.93565,6.009,-19.342,-58.133,10.042,-47.954,11.202,57.5998,6071
-5.8101,8.92651,6.07022,-1.27593,7.28247,6.44267,1.61026,-1.52236,-0.1985,0.7204,-0.79568,-0.93565,6.009,-19.342,-58.133,10.042,-47.954,11.202,57.5998,6105
-5.8101,8.92651,6.07022,-1.65521,7.56122,6.02151,-1.31405,3.5468,2.69873,0.7204,-0.79568,-0.93565,6.009,-19.342,-58.133,10.042,-47.954,11.202,57.5998,6140
-1.19785,10.13692,7.63731,-1.65521,7.56122,6.02151,-1.31405,3.5468,2.69873,0.7204,-0.79568,-0.93565,6.561,-15.601,-60.681,14.434,-50.446,15.37,57.5998,6175
-1.19785,10.13692,7.63731,-1.65521,7.56122,6.02151,-1.31405,3.5468,2.69873,-1.47562,0.35027,0.6163,6.561,-15.601,-60.681,14.434,-50.446,15.37,57.5998,6210
-1.19785,10.13692,7.63731,-1.05826,6.71752,7.06579,0.81597,0.55356,1.35971,-1.47562,0.35027,0.6163,6.561,-15.601,-60.681,14.434,-50.446,15.37,57.5998,6247
-1.19785,10.13692,7.63731,-1.05826,6.71752,7.06579,0.81597,0.55356,1.35971,-1.47562,0.35027,0.6163,4.599,-15.532,-60.327,7.613,-43.235,8.518,57.5998,6280
0.23071,5.29736,7.91101,-1.05826,6.71752,7.06579,0.81597,0.55356,1.35971,1.49008,-0.10052,0.37787,4.599,-15.532,-60.327,7.613,-43.235,8.518,57.5998,6319
0.23071,5.29736,7.91101,-1.05826,6.71752,7.06579,0.81597,0.55356,1.35971,1.49008,-0.10052,0.37787,4.599,-15.532,-60.327,7.613,-43.235,8.518,57.5998,6350
0.23071,5.29736,7.91101,-0.42513,7.64296,6.12983,-0.02401,-3.37936,-1.32036,1.49008,-0.10052,0.37787,4.599,-15.532,-60.327,7.613,-43.235,8.518,58.6424,6386
0.23071,5.29736,7.91101,-0.42513,7.64296,6.12983,-0.02401,-3.37936,-1.32036,1.49008,-0.10052,0.37787,0.267,-25.421,-58.238,7.765,-51.202,3.967,58.6424,6421
0.99011,5.94708,2.80698,-0.42513,7.64296,6.12983,-0.02401,-3.37936,-1.32036,1.98407,-1.86876,-0.56303,0.267,-25.421,-58.238,7.765,-51.202,3.967,58.6424,6455
0.99011,5.94708,2.80698,-0.42513,7.64296,6.12983,-0.02401,-3.37936,-1.32036,1.98407,-1.86876,-0.56303,0.267,-25.421,-58.238,7.765,-51.202,3.967,58.6424,6490
0.99011,5.94708,2.80698,0.09118,8.54289,4.81468,0.00216,1.8022,-2.68283,1.98407,-1.86876,-0.56303,0.267,-25.421,-58.238,7.765,-51.202,3.967,58.6424,6526
0.99011,5.94708,2.80698,0.09118,8.54289,4.81468,0.00216,1.8022,-2.68283,1.98407,-1.86876,-0.56303,-1.123,-20.654,-58.939,359.836,-60.59,-1.085,58.6424,6560
1.09341,12.40578,7.76514,0.09118,8.54289,4.81468,0.00216,1.8022,-2.68283,-1.32208,-0.49147,-0.11406,-1.123,-20.654,-58.939,359.836,-60.59,-1.085,58.6424,6596
1.09341,12.40578,7.76514,0.09118,8.54289,4.81468,0.00216,1.8022,-2.68283,-1.32208,-0.49147,-0.11406,-1.123,-20.654,-58.939,359.836,-60.59,-1.085,58.6424,6630
1.09341,12.40578,7.76514,0.17252,7.72504,6.03858,1.78515,2.33194,3.08019,-1.32208,-0.49147,-0.11406,-1.123,-20.654,-58.939,359.836,-60.59,-1.085,58.6424,6666
1.09341,12.40578,7.76514,0.17252,7.72504,6.03858,1.78515,2.33194,3.08019,-1.32208,-0.49147,-0.11406,-3.146,-14.183,-61.234,1.823,-51.974,-1.636,58.6424,6700
2.21936,6.33992,8.23097,0.17252,7.72504,6.03858,1.78515,2.33194,3.08019,-1.2215,-0.3076,-0.1053,-3.146,-14.183,-61.234,1.823,-51.974,-1.636,60.2646,6736
2.21936,6.33992,8.23097,0.17252,7.72504,6.03858,1.78515,2.33194,3.08019,-1.2215,-0.3076,-0.1053,-3.146,-14.183,-61.234,1.823,-51.974,-1.636,60.2646,6771
2.21936,6.33992,8.23097,0.3863,6.89521,6.96255,1.28168,-2.39452,0.58883,-1.2215,-0.3076,-0.1053,-3.146,-14.183,-61.234,1.823,-51.974,-1.636,60.2646,6806
0.92667,4.26715,5.00409,0.3863,6.89521,6.96255,1.28168,-2.39452,0.58883,-1.2215,-0.3076,-0.1053,-4.475,-12.781,-60.965,1.044,-44.678,-3.176,60.2646,6840
0.92667,4.26715,5.00409,0.3863,6.89521,6.96255,1.28168,-2.39452,0.58883,0.61188,0.15968,-0.09024,-4.475,-12.781,-60.965,1.044,-44.678,-3.176,60.2646,6875
0.92667,4.26715,5.00409,0.3863,6.89521,6.96255,-0.72119,-1.90114,-3.73956,0.61188,0.15968,-0.09024,-4.475,-12.781,-60.965,1.044,-44.678,-3.176,60.2646,6910
0.92667,4.26715,5.00409,0.33683,7.12703,6.72774,-0.72119,-1.90114,-3.73956,0.61188,0.15968,-0.09024,-4.475,-12.781,-60.965,1.044,-44.678,-3.176,60.2646,6945
1.04005,6.19919,4.38696,0.33683,7.12703,6.72774,-0.72119,-1.90114,-3.73956,-0.19749,-1.23875,-1.23193,-2.483,-11.803,-61.089,358.33,-46.615,-2.866,60.2646,6981
1.04005,6.19919,4.38696,0.33683,7.12703,6.72774,-0.72119,-1.90114,-3.73956,-0.19749,-1.23875,-1.23193,-2.483,-11.803,-61.089,358.33,-46.615,-2.866,59.6738,7016
1.04005,6.19919,4.38696,0.33982,7.20071,6.64866,1.15607,-2.10475,-0.43425,-0.19749,-1.23875,-1.23193,-2.483,-11.803,-61.089,358.33,-46.615,-2.866,59.6738,7050
1.04005,6.19919,4.38696,0.33982,7.20071,6.64866,1.15607,-2.10475,-0.43425,-0.19749,-1.23875,-1.23193,-17.369,-14.085,-57.077,23.132,-47.245,-2.926,59.6738,7087
0.53055,8.65181,5.14699,0.33982,7.20071,6.64866,1.15607,-2.10475,-0.43425,0.01506,-3.47757,-1.42212,-17.369,-14.085,-57.077,23.132,-47.245,-2.926,59.6738,7121
0.53055,8.65181,5.14699,0.33982,7.20071,6.64866,1.15607,-2.10475,-0.43425,0.01506,-3.47757,-1.42212,-17.369,-14.085,-57.077,23.132,-47.245,-2.926,59.6738,7155
0.53055,8.65181,5.14699,2.42093,7.2186,6.18072,-3.12708,-4.84503,4.45264,0.01506,-3.47757,-1.42212,-17.369,-14.085,-57.077,23.132,-47.245,-2.926,59.6738,7190
0.53055,8.65181,5.14699,2.42093,7.2186,6.18072,-3.12708,-4.84503,4.45264,0.01506,-3.47757,-1.42212,-36.061,-9.818,-47.659,24.103,-47.4,-21.39,59.6738,7225
2.72955,-6.26335,4.58147,2.42093,7.2186,6.18072,-3.12708,-4.84503,4.45264,4.90949,-5.30832,6.16029,-36.061,-9.818,-47.659,24.103,-47.4,-21.39,59.6738,7260
2.72955,-6.26335,4.58147,2.42093,7.2186,6.18072,-3.12708,-4.84503,4.45264,4.90949,-5.30832,6.16029,-36.061,-9.818,-47.659,24.103,-47.4,-21.39,59.6738,7295
2.72955,-6.26335,4.58147,8.46944,4.90539,0.61335,5.53474,-10.75578,-4.67973,4.90949,-5.30832,6.16029,-36.061,-9.818,-47.659,24.103,-47.4,-21.39,59.3666,7330
2.72955,-6.26335,4.58147,8.46944,4.90539,0.61335,5.53474,-10.75578,-4.67973,4.90949,-5.30832,6.16029,-43.253,11.836,-37.77,313.671,-30.014,-85.858,59.3666,7366
15.2782,-3.43477,-1.91345,8.46944,4.90539,0.61335,5.53474,-10.75578,-4.67973,2.03578,-1.11191,3.58876,-43.253,11.836,-37.77,313.671,-30.014,-85.858,59.3666,7400
15.2782,-3.43477,-1.91345,8.46944,4.90539,0.61335,5.53474,-10.75578,-4.67973,2.03578,-1.11191,3.58876,-43.253,11.836,-37.77,313.671,-30.014,-85.858,59.3666,7436
15.2782,-3.43477,-1.91345,9.7576,-0.76583,-0.61087,3.39395,-5.11796,2.72681,2.03578,-1.11191,3.58876,-43.253,11.836,-37.77,313.671,-30.014,-85.858,59.3666,7470
22.77937,-4.54631,-1.78999,9.7576,-0.76583,-0.61087,3.39395,-5.11796,2.72681,2.03578,-1.11191,3.58876,-25.652,17.899,-54.216,286.25,4.479,-93.582,59.3666,7506
22.77937,-4.54631,-1.78999,9.7576,-0.76583,-0.61087,3.39395,-5.11796,2.72681,0.39177,8.15262,2.75595,-25.652,17.899,-54.216,286.25,4.479,-93.582,59.3666,7542
22.77937,-4.54631,-1.78999,7.80882,-3.67886,4.6539,3.39395,-5.11796,2.72681,0.39177,8.15262,2.75595,-25.652,17.899,-54.216,286.25,4.479,-93.582,59.3666,7575
22.77937,-4.54631,-1.78999,7.80882,-3.67886,4.6539,10.41206,-0.01866,-7.36386,0.39177,8.15262,2.75595,-25.652,17.899,-54.216,286.25,4.479,-93.582,59.3666,7611
11.45102,-6.13428,9.21811,7.80882,-3.67886,4.6539,10.41206,-0.01866,-7.36386,2.91829,-2.55904,0.55992,-19.431,19.872,-56.05,272.479,22.033,-59.206,59.9666,7646
11.45102,-6.13428,9.21811,7.80882,-3.67886,4.6539,10.41206,-0.01866,-7.36386,2.91829,-2.55904,0.55992,-19.431,19.872,-56.05,272.479,22.033,-59.206,59.9666,7680
11.45102,-6.13428,9.21811,8.19815,-2.93996,4.50749,-2.34553,2.8049,-2.62998,2.91829,-2.55904,0.55992,-19.431,19.872,-56.05,272.479,22.033,-59.206,59.9666,7717
11.45102,-6.13428,9.21811,8.19815,-2.93996,4.50749,-2.34553,2.8049,-2.62998,2.91829,-2.55904,0.55992,-19.431,19.872,-56.05,272.479,22.033,-59.206,59.9666,7751
3.68335,-3.71216,0.42053,8.19815,-2.93996,4.50749,-2.34553,2.8049,-2.62998,-2.46379,-2.25014,-1.30156,-17.708,25.085,-54.979,285.791,17.445,-61.197,59.9666,7786
3.68335,-3.71216,0.42053,8.19815,-2.93996,4.50749,-2.34553,2.8049,-2.62998,-2.46379,-2.25014,-1.30156,-17.708,25.085,-54.979,285.791,17.445,-61.197,59.9666,7822
3.68335,-3.71216,0.42053,8.72601,-2.71328,3.55883,1.3371,-1.29888,2.88625,-2.46379,-2.25014,-1.30156,-17.708,25.085,-54.979,285.791,17.445,-61.197,59.9666,7856
3.68335,-3.71216,0.42053,8.72601,-2.71328,3.55883,1.3371,-1.29888,2.88625,-2.46379,-2.25014,-1.30156,-26.984,30.47,-45.004,298.672,16.062,-67.812,59.9666,7891
5.2921,-2.94899,0.29886,8.72601,-2.71328,3.55883,1.3371,-1.29888,2.88625,-0.83321,-0.6114,-1.30951,-26.984,30.47,-45.004,298.672,16.062,-67.812,59.9666,7947
8.02284,1.91533,0.46024,9.17917,-1.59367,3.0616,-1.38535,3.54876,-2.67775,-0.83321,-0.6114,-1.30951,-31.572,30.087,-44.264,299.227,16.062,-67.812,55.4165,8014
8.02284,1.91533,0.46024,9.17917,-1.59367,3.0616,-1.38535,3.54876,-2.67775,-0.83321,-0.6114,-1.30951,-31.572,30.087,-44.264,299.227,16.062,-67.812,55.4165,8016
8.02284,1.91533,0.46024,9.17917,-1.59367,3.0616,-1.38535,3.54876,-2.67775,-0.83321,-0.6114,-1.30951,-31.572,30.087,-44.264,299.227,16.062,-67.812,55.4165,8030
8.02284,1.91533,0.46024,9.17917,-1.59367,3.0616,-1.38535,3.54876,-2.67775,0.53247,-0.28053,-1.3484,-31.572,30.087,-44.264,299.227,16.062,-67.812,55.4165,8065
13.89734,-2.09076,1.52711,9.17917,-1.59367,3.0616,-1.38535,3.54876,-2.67775,0.53247,-0.28053,-1.3484,-31.572,30.087,-44.264,299.227,16.062,-67.812,55.4165,8101
13.89734,-2.09076,1.52711,9.41602,-0.11755,2.73774,4.17646,-1.9694,-1.29926,0.53247,-0.28053,-1.3484,-31.572,30.087,-44.264,299.227,16.062,-67.812,55.4165,8136
13.89734,-2.09076,1.52711,9.41602,-0.11755,2.73774,4.17646,-1.9694,-1.29926,0.53247,-0.28053,-1.3484,-41.187,18.228,-43.15,300.22,0.687,-73.788,55.4165,8171
13.89734,-2.09076,1.52711,9.41602,-0.11755,2.73774,4.17646,-1.9694,-1.29926,1.69696,-2.25829,0.44852,-41.187,18.228,-43.15,300.22,0.687,-73.788,55.4165,8205
12.61957,-7.51907,4.12175,9.71039,-0.24217,1.34912,2.51858,-7.26716,2.71836,1.69696,-2.25829,0.44852,-41.187,18.228,-43.15,300.22,0.687,-73.788,55.4165,8240
12.61957,-7.51907,4.12175,9.71039,-0.24217,1.34912,2.51858,-7.26716,2.71836,1.69696,-2.25829,0.44852,-41.187,18.228,-43.15,300.22,0.687,-73.788,55.4165,8275
12.61957,-7.51907,4.12175,9.71039,-0.24217,1.34912,2.51858,-7.26716,2.71836,-0.22031,0.82227,0.53058,-38.391,18.971,-41.927,296.232,1.415,-82.09,55.4165,8310
12.61957,-7.51907,4.12175,9.71039,-0.24217,1.34912,2.51858,-7.26716,2.71836,-0.22031,0.82227,0.53058,-38.391,18.971,-41.927,296.232,1.415,-82.09,58.2791,8345
4.83493,-3.10045,1.26503,9.55824,-1.12897,1.88037,-5.06348,-1.9313,-0.68226,-0.22031,0.82227,0.53058,-38.391,18.971,-41.927,296.232,1.415,-82.09,58.2791,8380
4.83493,-3.10045,1.26503,9.55824,-1.12897,1.88037,-5.06348,-1.9313,-0.68226,-0.22031,0.82227,0.53058,-38.391,18.971,-41.927,296.232,1.415,-82.09,58.2791,8415
4.83493,-3.10045,1.26503,9.55824,-1.12897,1.88037,-5.06348,-1.9313,-0.68226,0.92993,0.33011,1.11295,-32.625,20.242,-45.869,291.304,6.611,-78.87,58.2791,8451
4.83493,-3.10045,1.26503,9.55824,-1.12897,1.88037,-5.06348,-1.9313,-0.68226,0.92993,0.33011,1.11295,-32.625,20.242,-45.869,291.304,6.611,-78.87,58.2791,8486
9.52933,2.93005,-2.10431,9.32511,-1.74512,2.48339,0.00739,4.71201,-4.64012,0.92993,0.33011,1.11295,-32.625,20.242,-45.869,291.304,6.611,-78.87,58.2791,8520
9.52933,2.93005,-2.10431,9.32511,-1.74512,2.48339,0.00739,4.71201,-4.64012,0.92993,0.33011,1.11295,-32.625,20.242,-45.869,291.304,6.611,-78.87,58.2791,8559
9.52933,2.93005,-2.10431,9.32511,-1.74512,2.48339,0.00739,4.71201,-4.64012,0.92627,-1.15344,0.38072,-31.195,16.902,-45.293,284.733,10.251,-75.088,58.2791,8590
9.52933,2.93005,-2.10431,9.32511,-1.74512,2.48339,0.00739,4.71201,-4.64012,0.92627,-1.15344,0.38072,-31.195,16.902,-45.293,284.733,10.251,-75.088,58.2791,8626
14.1602,-5.09178,0.39226,9.47003,-1.69715,1.89961,4.43489,-3.34888,-1.55856,0.92627,-1.15344,0.38072,-31.195,16.902,-45.293,284.733,10.251,-75.088,54.7903,8667
14.1602,-5.09178,0.39226,9.47003,-1.69715,1.89961,4.43489,-3.34888,-1.55856,0.92627,-1.15344,0.38072,-31.332,15.236,-43.155,282.583,9.966,-78.657,54.7903,8695
14.1602,-5.09178,0.39226,9.47003,-1.69715,1.89961,4.43489,-3.34888,-1.55856,0.47177,-1.35442,0.23412,-31.332,15.236,-43.155,282.583,9.966,-78.657,54.7903,8730
13.24936,-10.39812,2.22639,9.47003,-1.69715,1.89961,4.43489,-3.34888,-1.55856,0.47177,-1.35442,0.23412,-31.332,15.236,-43.155,282.583,9.966,-78.657,54.7903,8766
13.24936,-10.39812,2.22639,9.55759,-2.12733,0.54528,3.25243,-8.173,1.65605,0.47177,-1.35442,0.23412,-31.332,15.236,-43.155,282.583,9.966,-78.657,54.7903,8800
13.24936,-10.39812,2.22639,9.55759,-2.12733,0.54528,3.25243,-8.173,1.65605,0.47177,-1.35442,0.23412,-34.506,19.423,-35.811,287.222,12.529,-86.735,54.7903,8836
13.24936,-10.39812,2.22639,9.55759,-2.12733,0.54528,3.25243,-8.173,1.65605,-2.14024,-1.93494,1.07669,-34.506,19.423,-35.811,287.222,12.529,-86.735,54.7903,8870
1.181,-2.72714,-0.2795,9.55759,-2.12733,0.54528,3.25243,-8.173,1.65605,-2.14024,-1.93494,1.07669,-34.506,19.423,-35.811,287.222,12.529,-86.735,54.7903,8906
1.181,-2.72714,-0.2795,8.82563,-3.57867,-2.33917,-7.89194,0.9518,2.12522,-2.14024,-1.93494,1.07669,-34.506,19.423,-35.811,287.222,12.529,-86.735,54.7903,8940
1.181,-2.72714,-0.2795,8.82563,-3.57867,-2.33917,-7.89194,0.9518,2.12522,-1.16795,0.32259,0.94128,-32.774,24.794,-27.794,291.864,21.403,-104.845,56.4291,8976
1.181,-2.72714,-0.2795,8.82563,-3.57867,-2.33917,-7.89194,0.9518,2.12522,-1.16795,0.32259,0.94128,-32.774,24.794,-27.794,291.864,21.403,-104.845,56.4291,9010
7.70828,1.64586,-5.40128,8.3712,-4.03403,-3.1337,-0.79952,5.74572,-2.21644,-1.16795,0.32259,0.94128,-32.774,24.794,-27.794,291.864,21.403,-104.845,56.4291,9045
7.70828,1.64586,-5.40128,8.3712,-4.03403,-3.1337,-0.79952,5.74572,-2.21644,-1.16795,0.32259,0.94128,-32.774,24.794,-27.794,291.864,21.403,-104.845,56.4291,9080
7.94263,-6.31696,-4.98056,8.3712,-4.03403,-3.1337,-0.79952,5.74572,-2.21644,0.63243,-0.73114,-0.97435,-33.907,21.15,-28.006,284.804,24.29,-110.523,56.4291,9116
7.94263,-6.31696,-4.98056,8.3712,-4.03403,-3.1337,-0.79952,5.74572,-2.21644,0.63243,-0.73114,-0.97435,-33.907,21.15,-28.006,284.804,24.29,-110.523,56.4291,9151
7.94263,-6.31696,-4.98056,8.52872,-3.3846,-3.4606,0.09527,-6.52427,-7.32636,0.63243,-0.73114,-0.97435,-33.907,21.15,-28.006,284.804,24.29,-110.523,56.4291,9185
7.94263,-6.31696,0.54446,8.52872,-3.3846,-3.4606,0.09527,-6.52427,-7.32636,0.63243,-0.73114,-0.97435,-33.907,21.15,-28.006,284.804,24.29,-110.523,56.4291,9221
9.7355,-8.60619,0.54446,8.52872,-3.3846,-3.4606,0.09527,-6.52427,-7.32636,-0.26672,0.66365,-0.38486,-33.131,18.884,-25.873,286.27,20.19,-112.085,56.4291,9255
9.7355,-8.60619,0.54446,8.52872,-3.3846,-3.4606,0.09527,-6.52427,-7.32636,-0.26672,0.66365,-0.38486,-33.131,18.884,-25.873,286.27,20.19,-112.085,57.2576,9290
9.7355,-8.60619,0.54446,8.74039,-3.29246,-2.98924,-0.34193,-4.62908,1.71429,-0.26672,0.66365,-0.38486,-33.131,18.884,-25.873,286.27,20.19,-112.085,57.2576,9325
9.7355,-8.60619,0.54446,8.74039,-3.29246,-2.98924,-0.34193,-4.62908,1.71429,-0.26672,0.66365,-0.38486,-33.131,18.884,-25.873,286.27,20.19,-112.085,57.2576,9360
8.33824,-7.34174,-1.15309,8.74039,-3.29246,-2.98924,-0.34193,-4.62908,1.71429,1.32597,0.70518,1.58473,-29.623,20.085,-29.588,288.259,19.617,-108.881,57.2576,9396
8.33824,-7.34174,-1.15309,8.74039,-3.29246,-2.98924,-0.34193,-4.62908,1.71429,1.32597,0.70518,1.58473,-29.623,20.085,-29.588,288.259,19.617,-108.881,57.2576,9431
8.33824,-7.34174,-1.15309,8.39652,-4.99356,-0.85629,-2.35028,1.71664,1.22262,1.32597,0.70518,1.58473,-29.623,20.085,-29.588,288.259,19.617,-108.881,57.2576,9468
8.33824,-7.34174,-1.15309,8.39652,-4.99356,-0.85629,-2.35028,1.71664,1.22262,1.32597,0.70518,1.58473,-21.495,19.994,-39.938,281.647,30.611,-95.823,57.2576,9501
3.63699,-3.85901,-0.90494,8.39652,-4.99356,-0.85629,-2.35028,1.71664,1.22262,-0.69839,1.66628,0.16916,-21.495,19.994,-39.938,281.647,30.611,-95.823,57.2576,9535
3.63699,-3.85901,-0.90494,8.39652,-4.99356,-0.85629,-2.35028,1.71664,1.22262,-0.69839,1.66628,0.16916,-21.495,19.994,-39.938,281.647,30.611,-95.823,57.736,9571
3.63699,-3.85901,-0.90494,7.93947,-5.60199,1.32394,-2.39766,3.66749,-2.0449,-0.69839,1.66628,0.16916,-21.495,19.994,-39.938,281.647,30.611,-95.823,57.736,9606
10.99406,-7.2702,-2.19171,7.93947,-5.60199,1.32394,-2.39766,3.66749,-2.0449,-0.69839,1.66628,0.16916,-12.498,23.131,-41.763,281.699,34.837,-80.533,57.736,9642
10.99406,-7.2702,-2.19171,7.93947,-5.60199,1.32394,-2.39766,3.66749,-2.0449,0.26918,0.46735,0.69368,-12.498,23.131,-41.763,281.699,34.837,-80.533,57.736,9676
10.99406,-7.2702,-2.19171,7.93947,-5.60199,1.32394,-2.39766,3.66749,-2.0449,0.26918,0.46735,0.69368,-12.498,23.131,-41.763,281.699,34.837,-80.533,57.736,9711
10.99406,-7.2702,-2.19171,7.27883,-6.33656,1.7427,4.19597,-2.46548,-2.59317,0.26918,0.46735,0.69368,-12.498,23.131,-41.763,281.699,34.837,-80.533,57.736,9746
8.74815,-10.58398,2.40503,7.27883,-6.33656,1.7427,4.19597,-2.46548,-2.59317,-0.6416,-0.3748,3.11168,-7.509,29.285,-42.316,285.468,40.252,-76.536,57.736,9781
8.74815,-10.58398,2.40503,7.27883,-6.33656,1.7427,4.19597,-2.46548,-2.59317,-0.6416,-0.3748,3.11168,-7.509,29.285,-42.316,285.468,40.252,-76.536,57.736,9818
8.74815,-10.58398,2.40503,5.66944,-7.96113,0.80512,-0.37648,-8.6054,-2.06427,-0.6416,-0.3748,3.11168,-7.509,29.285,-42.316,285.468,40.252,-76.536,57.736,9854
8.74815,-10.58398,2.40503,5.66944,-7.96113,0.80512,-0.37648,-8.6054,-2.06427,-0.6416,-0.3748,3.11168,-7.509,29.285,-42.316,285.468,40.252,-76.536,63.077,9886
6.08504,-12.13716,0.18279,5.66944,-7.96113,0.80512,-0.37648,-8.6054,-2.06427,-2.65356,-0.51428,-1.11566,-9.084,37.901,-34.239,288.872,54.273,-81.917,63.077,9921
6.08504,-12.13716,0.18279,5.66944,-7.96113,0.80512,-0.37648,-8.6054,-2.06427,-2.65356,-0.51428,-1.11566,-9.084,37.901,-34.239,288.872,54.273,-81.917,63.077,9956
6.08504,-12.13716,0.18279,6.58395,-7.11729,-1.47175,-3.49992,1.93135,3.71112,-2.65356,-0.51428,-1.11566,-9.084,37.901,-34.239,288.872,54.273,-81.917,63.077,9991
6.08504,-12.13716,0.18279,6.58395,-7.11729,-1.47175,-3.49992,1.93135,3.71112,-2.65356,-0.51428,-1.11566,-9.084,37.901,-34.239,288.872,54.273,-81.917,63.077,10025
-0.05165,-0.91068,0.27028,6.58395,-7.11729,-1.47175,-3.49992,1.93135,3.71112,0.8611,-1.81154,-0.56364,-23.184,37.778,-31.508,292.37,46.532,-102.601,63.077,10060
-0.05165,-0.91068,0.27028,6.58395,-7.11729,-1.47175,-3.49992,1.93135,3.71112,0.8611,-1.81154,-0.56364,-23.184,37.778,-31.508,292.37,46.532,-102.601,63.077,10096
-0.05165,-0.91068,0.27028,6.7119,-6.70581,-2.48048,-6.46321,6.63231,-0.18431,0.8611,-1.81154,-0.56364,-23.184,37.778,-31.508,292.37,46.532,-102.601,63.077,10131
-0.05165,-0.91068,0.27028,6.7119,-6.70581,-2.48048,-6.46321,6.63231,-0.18431,0.8611,-1.81154,-0.56364,-23.184,37.778,-31.508,292.37,46.532,-102.601,63.077,10166
10.02162,-11.01193,-9.52803,6.7119,-6.70581,-2.48048,-6.46321,6.63231,-0.18431,-1.5524,-0.11438,-1.22501,-27.036,38.602,-29.884,295.951,43.142,-110.283,63.077,10205
10.02162,-11.01193,-9.52803,6.7119,-6.70581,-2.48048,-6.46321,6.63231,-0.18431,-1.5524,-0.11438,-1.22501,-27.036,38.602,-29.884,295.951,43.142,-110.283,68.1356,10236
10.02162,-11.01193,-9.52803,7.16629,-5.82311,-3.30244,6.20E-04,-3.19418,-2.0004,-1.5524,-0.11438,-1.22501,-27.036,38.602,-29.884,295.951,43.142,-110.283,68.1356,10271
0.96426,-9.71715,0.33031,7.16629,-5.82311,-3.30244,6.20E-04,-3.19418,-2.0004,-1.5524,-0.11438,-1.22501,-25.284,41.769,-28.342,307.227,36.427,-114.742,68.1356,10306
0.96426,-9.71715,0.33031,7.16629,-5.82311,-3.30244,6.20E-04,-3.19418,-2.0004,1.07857,0.2159,1.42041,-25.284,41.769,-28.342,307.227,36.427,-114.742,68.1356,10341
0.96426,-9.71715,0.33031,6.23082,-7.31208,-1.96998,-2.00364,-2.72483,4.83362,1.07857,0.2159,1.42041,-25.284,41.769,-28.342,307.227,36.427,-114.742,68.1356,10375
0.96426,-9.71715,0.33031,6.23082,-7.31208,-1.96998,-2.00364,-2.72483,4.83362,1.07857,0.2159,1.42041,-25.284,41.769,-28.342,307.227,36.427,-114.742,68.1356,10411
2.59682,-7.16663,-0.27397,6.23082,-7.31208,-1.96998,-2.00364,-2.72483,4.83362,2.24878,3.35857,3.11392,-3.159,40.758,-43.918,309.3,48.213,-107.545,68.1356,10446
2.59682,-7.16663,-0.27397,6.23082,-7.31208,-1.96998,-2.00364,-2.72483,4.83362,2.24878,3.35857,3.11392,-3.159,40.758,-43.918,309.3,48.213,-107.545,68.1356,10481
2.59682,-7.16663,-0.27397,2.78176,-9.31583,1.28353,-1.60224,4.02682,-1.30835,2.24878,3.35857,3.11392,-3.159,40.758,-43.918,309.3,48.213,-107.545,68.1356,10516
2.59682,-7.16663,-0.27397,2.78176,-9.31583,1.28353,-1.60224,4.02682,-1.30835,2.24878,3.35857,3.11392,-3.159,40.758,-43.918,309.3,48.213,-107.545,73.3996,10550
-1.476,-11.55609,2.84372,2.78176,-9.31583,1.28353,-1.60224,4.02682,-1.30835,1.22966,-0.78185,1.92641,12.045,34.811,-48.813,272.062,71.796,-65.231,73.3996,10585
-1.476,-11.55609,2.84372,2.78176,-9.31583,1.28353,-1.60224,4.02682,-1.30835,1.22966,-0.78185,1.92641,12.045,34.811,-48.813,272.062,71.796,-65.231,73.3996,10620
-1.476,-11.55609,2.84372,0.91991,-9.27813,3.03981,0.06486,-1.18586,-4.64679,1.22966,-0.78185,1.92641,12.045,34.811,-48.813,272.062,71.796,-65.231,73.3996,10656
-1.476,-11.55609,2.84372,0.91991,-9.27813,3.03981,0.06486,-1.18586,-4.64679,1.22966,-0.78185,1.92641,12.045,34.811,-48.813,272.062,71.796,-65.231,73.3996,10690
4.11641,-12.46547,-2.61198,0.91991,-9.27813,3.03981,0.06486,-1.18586,-4.64679,-0.31641,1.0377,-0.59175,8.218,31.677,-57.112,211.745,71.104,-16.837,73.3996,10726
4.11641,-12.46547,-2.61198,0.91991,-9.27813,3.03981,0.06486,-1.18586,-4.64679,-0.31641,1.0377,-0.59175,8.218,31.677,-57.112,211.745,71.104,-16.837,73.3996,10761
4.11641,-12.46547,-2.61198,1.71712,-9.06211,3.33168,1.96075,-4.68905,-3.76337,-0.31641,1.0377,-0.59175,8.218,31.677,-57.112,211.745,71.104,-16.837,73.3996,10796
4.11641,-12.46547,-2.61198,1.71712,-9.06211,3.33168,1.96075,-4.68905,-3.76337,-0.31641,1.0377,-0.59175,8.218,31.677,-57.112,211.745,71.104,-16.837,73.3996,10830
-1.78874,-16.93463,-0.13304,1.71712,-9.06211,3.33168,1.96075,-4.68905,-3.76337,-2.1207,0.43071,0.58333,10.808,43.851,-47.43,241.313,67.53,-27.266,70.8645,10866
-1.78874,-16.93463,-0.13304,1.71712,-9.06211,3.33168,1.96075,-4.68905,-3.76337,-2.1207,0.43071,0.58333,10.808,43.851,-47.43,241.313,67.53,-27.266,70.8645,10900
-1.78874,-16.93463,-0.13304,1.36976,-9.64435,1.13165,-8.6553,-6.56951,1.09731,-2.1207,0.43071,0.58333,10.808,43.851,-47.43,241.313,67.53,-27.266,70.8645,10935
-1.43625,-11.71321,3.01501,1.36976,-9.64435,1.13165,-8.6553,-6.56951,1.09731,-2.1207,0.43071,0.58333,10.808,43.851,-47.43,241.313,67.53,-27.266,70.8645,10970
-1.43625,-11.71321,3.01501,1.36976,-9.64435,1.13165,-8.6553,-6.56951,1.09731,-1.55016,-0.80402,-1.47871,7.605,53.065,-25.206,270.02,79.562,-50.438,70.8645,11006
-1.43625,-11.71321,3.01501,2.72031,-9.28816,-1.58127,-0.72943,3.8664,4.89461,-1.55016,-0.80402,-1.47871,7.605,53.065,-25.206,270.02,79.562,-50.438,70.8645,11041
-1.43625,-11.71321,3.01501,2.72031,-9.28816,-1.58127,-0.72943,3.8664,4.89461,-1.55016,-0.80402,-1.47871,7.605,53.065,-25.206,270.02,79.562,-50.438,70.8645,11076
-2.7238,2.8925,3.21407,2.72031,-9.28816,-1.58127,-0.72943,3.8664,4.89461,-0.33922,-1.6745,-0.27411,-0.58,52.075,-18.524,325.799,71.285,-120.169,70.8645,11110
-2.7238,2.8925,3.21407,2.72031,-9.28816,-1.58127,-0.72943,3.8664,4.89461,-0.33922,-1.6745,-0.27411,-0.58,52.075,-18.524,325.799,71.285,-120.169,70.8645,11145
-2.7238,2.8925,3.21407,2.34477,-9.08969,-2.83725,-3.98569,9.99294,0.97371,-0.33922,-1.6745,-0.27411,-0.58,52.075,-18.524,325.799,71.285,-120.169,72.0788,11180
-2.7238,2.8925,3.21407,2.34477,-9.08969,-2.83725,-3.98569,9.99294,0.97371,-0.33922,-1.6745,-0.27411,-0.58,52.075,-18.524,325.799,71.285,-120.169,72.0788,11215
2.37024,-18.42853,-12.04324,2.34477,-9.08969,-2.83725,-3.98569,9.99294,0.97371,-1.26222,-2.61055,-0.74712,-2.687,49.553,-18.091,335.226,67.955,-140.429,72.0788,11250
2.37024,-18.42853,-12.04324,2.34477,-9.08969,-2.83725,-3.98569,9.99294,0.97371,-1.26222,-2.61055,-0.74712,-2.687,49.553,-18.091,335.226,67.955,-140.429,72.0788,11286
2.37024,-18.42853,-12.04324,2.20352,-8.73956,-3.86459,-3.66774,-1.19321,-0.61945,-1.26222,-2.61055,-0.74712,-2.687,49.553,-18.091,335.226,67.955,-140.429,72.0788,11320
2.37024,-18.42853,-12.04324,2.20352,-8.73956,-3.86459,-3.66774,-1.19321,-0.61945,-1.26222,-2.61055,-0.74712,-2.687,49.553,-18.091,335.226,67.955,-140.429,72.0788,11357
-1.96248,-5.70781,6.42505,2.20352,-8.73956,-3.86459,-3.66774,-1.19321,-0.61945,1.51961,0.34111,-0.1218,-5.167,48.062,-22.127,337.392,63.023,-150.309,72.0788,11391
-1.96248,-5.70781,6.42505,2.20352,-8.73956,-3.86459,-3.66774,-1.19321,-0.61945,1.51961,0.34111,-0.1218,-5.167,48.062,-22.127,337.392,63.023,-150.309,72.0788,11426
-1.96248,-5.70781,6.42505,2.03186,-9.49966,-1.34102,-7.27807,-1.14703,7.19167,1.51961,0.34111,-0.1218,-5.167,48.062,-22.127,337.392,63.023,-150.309,72.0788,11460
-1.96248,-5.70781,6.42505,2.03186,-9.49966,-1.34102,-7.27807,-1.14703,7.19167,1.51961,0.34111,-0.1218,-5.167,48.062,-22.127,337.392,63.023,-150.309,72.0788,11496
1.29482,-17.53824,-1.43932,2.03186,-9.49966,-1.34102,-7.27807,-1.14703,7.19167,0.59782,-3.50975,1.06183,8.029,43.211,-35.616,324.805,75.626,-123.425,75.1141,11531
1.29482,-17.53824,-1.43932,2.03186,-9.49966,-1.34102,-7.27807,-1.14703,7.19167,0.59782,-3.50975,1.06183,8.029,43.211,-35.616,324.805,75.626,-123.425,75.1141,11566
1.29482,-17.53824,-1.43932,0.67093,-9.69535,1.31168,3.60441,0.14158,-1.02156,0.59782,-3.50975,1.06183,8.029,43.211,-35.616,324.805,75.626,-123.425,75.1141,11601
2.85808,-5.38234,-1.91107,0.67093,-9.69535,1.31168,3.60441,0.14158,-1.02156,0.59782,-3.50975,1.06183,8.029,43.211,-35.616,324.805,75.626,-123.425,75.1141,11636
2.85808,-5.38234,-1.91107,0.67093,-9.69535,1.31168,3.60441,0.14158,-1.02156,1.36913,2.94603,-0.58502,10.638,34.636,-46.692,225.035,81.359,-27.09,75.1141,11670
2.85808,-5.38234,-1.91107,0.5044,-9.05372,3.73446,-1.57045,2.08627,-5.83747,1.36913,2.94603,-0.58502,10.638,34.636,-46.692,225.035,81.359,-27.09,75.1141,11707
2.85808,-5.38234,-1.91107,0.5044,-9.05372,3.73446,-1.57045,2.08627,-5.83747,1.36913,2.94603,-0.58502,10.638,34.636,-46.692,225.035,81.359,-27.09,75.1141,11741
1.99713,-10.45543,-1.82252,0.5044,-9.05372,3.73446,-1.57045,2.08627,-5.83747,1.36913,2.94603,-0.58502,10.638,34.636,-46.692,225.035,81.359,-27.09,75.1141,11776
1.99713,-10.45543,-1.82252,0.5044,-9.05372,3.73446,-1.57045,2.08627,-5.83747,-0.19933,-0.69183,-0.05725,9.315,32.407,-47.968,206.7,67.402,-7.692,75.1141,11810
1.99713,-10.45543,-1.82252,0.93771,-8.98074,3.82588,4.42596,-4.11227,-4.00756,-0.19933,-0.69183,-0.05725,9.315,32.407,-47.968,206.7,67.402,-7.692,67.6877,11845
1.99713,-10.45543,-1.82252,0.93771,-8.98074,3.82588,4.42596,-4.11227,-4.00756,-0.19933,-0.69183,-0.05725,9.315,32.407,-47.968,206.7,67.402,-7.692,67.6877,11880
-2.20651,-16.45996,-0.69864,0.93771,-8.98074,3.82588,4.42596,-4.11227,-4.00756,-3.33264,1.24805,-0.18083,8.365,39.851,-37.129,227.674,66.317,-13.772,67.6877,11915
-2.20651,-16.45996,-0.69864,0.93771,-8.98074,3.82588,4.42596,-4.11227,-4.00756,-3.33264,1.24805,-0.18083,8.365,39.851,-37.129,227.674,66.317,-13.772,67.6877,11951
-2.20651,-16.45996,-0.69864,0.96802,-9.69075,1.15009,-7.0222,-8.26782,0.98264,-3.33264,1.24805,-0.18083,8.365,39.851,-37.129,227.674,66.317,-13.772,67.6877,11986
-2.20651,-16.45996,-0.69864,0.96802,-9.69075,1.15009,-7.0222,-8.26782,0.98264,-3.33264,1.24805,-0.18083,8.365,39.851,-37.129,227.674,66.317,-13.772,67.6877,12020
-2.2249,-13.36995,1.62231,0.96802,-9.69075,1.15009,-7.0222,-8.26782,0.98264,-1.76863,-1.52179,-1.64262,4.15,44.493,-25.639,242.369,81.182,-40.087,67.6877,12055
-2.2249,-13.36995,1.62231,0.96802,-9.69075,1.15009,-7.0222,-8.26782,0.98264,-1.76863,-1.52179,-1.64262,4.15,44.493,-25.639,242.369,81.182,-40.087,67.6877,12091
-2.2249,-13.36995,1.62231,2.11816,-9.41207,-1.75975,-0.4172,2.8812,4.98222,-1.76863,-1.52179,-1.64262,4.15,44.493,-25.639,242.369,81.182,-40.087,67.6877,12126
-2.2249,-13.36995,1.62231,2.11816,-9.41207,-1.75975,-0.4172,2.8812,4.98222,-1.76863,-1.52179,-1.64262,4.15,44.493,-25.639,242.369,81.182,-40.087,68.4988,12160
-2.38599,2.05904,3.72874,2.11816,-9.41207,-1.75975,-0.4172,2.8812,4.98222,-0.31947,-1.93045,-0.18349,-1.582,46.832,-20.978,324.681,73.692,-129.719,68.4988,12197
-2.38599,2.05904,3.72874,2.11816,-9.41207,-1.75975,-0.4172,2.8812,4.98222,-0.31947,-1.93045,-0.18349,-1.582,46.832,-20.978,324.681,73.692,-129.719,68.4988,12231
-2.38599,2.05904,3.72874,1.64165,-9.26097,-2.77665,-3.11062,8.40836,0.34767,-0.31947,-1.93045,-0.18349,-1.582,46.832,-20.978,324.681,73.692,-129.719,68.4988,12266
-2.38599,2.05904,3.72874,1.64165,-9.26097,-2.77665,-3.11062,8.40836,0.34767,-0.31947,-1.93045,-0.18349,-1.582,46.832,-20.978,324.681,73.692,-129.719,68.4988,12301
5.86011,-17.49249,-12.16096,1.64165,-9.26097,-2.77665,-3.11062,8.40836,0.34767,-1.07449,-2.72377,-1.28101,-8.185,43.785,-19.145,327.585,70.796,-149.407,68.4988,12336
5.86011,-17.49249,-12.16096,1.64165,-9.26097,-2.77665,-3.11062,8.40836,0.34767,-1.07449,-2.72377,-1.28101,-8.185,43.785,-19.145,327.585,70.796,-149.407,68.4988,12370
5.86011,-17.49249,-12.16096,1.99315,-8.94272,-3.4965,-5.02447,-2.46542,0.23505,-1.07449,-2.72377,-1.28101,-8.185,43.785,-19.145,327.585,70.796,-149.407,68.4988,12406
-2.64748,-6.98642,4.23837,1.99315,-8.94272,-3.4965,-5.02447,-2.46542,0.23505,-1.07449,-2.72377,-1.28101,-8.185,43.785,-19.145,327.585,70.796,-149.407,68.4988,12442
-2.64748,-6.98642,4.23837,1.99315,-8.94272,-3.4965,-5.02447,-2.46542,0.23505,1.64993,0.91084,0.24287,-4.628,43.436,-27.516,334.141,65.77,-150.315,72.0675,12479
-2.64748,-6.98642,4.23837,1.37251,-9.64747,-1.1013,-5.81324,-0.65348,6.17219,1.64993,0.91084,0.24287,-4.628,43.436,-27.516,334.141,65.77,-150.315,72.0675,12511
-2.64748,-6.98642,4.23837,1.37251,-9.64747,-1.1013,-5.81324,-0.65348,6.17219,1.64993,0.91084,0.24287,-4.628,43.436,-27.516,334.141,65.77,-150.315,72.0675,12545
2.15729,-16.35655,0.06644,1.37251,-9.64747,-1.1013,-5.81324,-0.65348,6.17219,0.94011,-5.84467,0.28604,-4.628,43.436,-27.516,334.141,65.77,-150.315,72.0675,12581
2.15729,-16.35655,0.06644,1.37251,-9.64747,-1.1013,-5.81324,-0.65348,6.17219,0.94011,-5.84467,0.28604,1.294,37.709,-41.988,316.146,79.663,-128.743,72.0675,12616
2.15729,-16.35655,0.06644,0.61085,-9.62238,1.79085,3.11373,1.45776,-1.58181,0.94011,-5.84467,0.28604,1.294,37.709,-41.988,316.146,79.663,-128.743,72.0675,12650
1.02321,-5.8438,-1.97684,0.61085,-9.62238,1.79085,3.11373,1.45776,-1.58181,0.94011,-5.84467,0.28604,1.294,37.709,-41.988,316.146,79.663,-128.743,72.0675,12686
1.02321,-5.8438,-1.97684,0.61085,-9.62238,1.79085,3.11373,1.45776,-1.58181,1.42004,4.32861,-0.66953,12.306,28.249,-47.116,217.605,78.875,-18.834,72.0675,12721
1.02321,-5.8438,-1.97684,0.61085,-9.62238,1.79085,3.11373,1.45776,-1.58181,1.42004,4.32861,-0.66953,12.306,28.249,-47.116,217.605,78.875,-18.834,72.0675,12756
-0.28856,-8.55368,-4.80791,-0.01914,-8.99441,3.90777,-0.26985,0.2386,-8.62786,1.42004,4.32861,-0.66953,12.306,28.249,-47.116,217.605,78.875,-18.834,72.0675,12790
-0.28856,-8.55368,-4.80791,-0.01914,-8.99441,3.90777,-0.26985,0.2386,-8.62786,1.42004,4.32861,-0.66953,12.306,28.249,-47.116,217.605,78.875,-18.834,72.5221,12825
-0.28856,-8.55368,-4.80791,-0.01914,-8.99441,3.90777,-0.26985,0.2386,-8.62786,0.24026,-0.95023,-0.53127,6.749,30.246,-47.662,191.9,66.516,0.281,72.5221,12860
2.49304,-14.90652,-3.09459,-0.01914,-8.99441,3.90777,-0.26985,0.2386,-8.62786,0.24026,-0.95023,-0.53127,6.749,30.246,-47.662,191.9,66.516,0.281,72.5221,12897
2.49304,-14.90652,-3.09459,0.90543,-9.27612,3.05026,1.59958,-5.75305,-6.10452,0.24026,-0.95023,-0.53127,6.749,30.246,-47.662,191.9,66.516,0.281,72.5221,12930
2.49304,-14.90652,-3.09459,0.90543,-9.27612,3.05026,1.59958,-5.75305,-6.10452,0.24026,-0.95023,-0.53127,6.749,30.246,-47.662,191.9,66.516,0.281,72.5221,12966
2.49304,-14.90652,-3.09459,0.90543,-9.27612,3.05026,1.59958,-5.75305,-6.10452,-2.79915,2.37244,-0.45023,7.033,39.267,-32.579,226.301,71.067,-16.533,72.5221,13000
-2.2906,-13.84541,1.73012,0.90543,-9.27612,3.05026,1.59958,-5.75305,-6.10452,-2.79915,2.37244,-0.45023,7.033,39.267,-32.579,226.301,71.067,-16.533,72.5221,13036
-2.2906,-13.84541,1.73012,1.61507,-9.67227,0.09521,-3.92091,-4.08188,1.63401,-2.79915,2.37244,-0.45023,7.033,39.267,-32.579,226.301,71.067,-16.533,72.5221,13071
-2.2906,-13.84541,1.73012,1.61507,-9.67227,0.09521,-3.92091,-4.08188,1.63401,-2.79915,2.37244,-0.45023,7.033,39.267,-32.579,226.301,71.067,-16.533,72.5221,13105
-2.2906,-13.84541,1.73012,1.61507,-9.67227,0.09521,-3.92091,-4.08188,1.63401,-2.59941,-4.34276,-1.53023,-6.268,43.301,-23.085,269.624,80.504,-86.626,71.1612,13140
-1.77846,1.25323,5.45921,2.2388,-8.99851,-3.19138,-3.97983,10.1013,8.59724,-2.59941,-4.34276,-1.53023,-6.268,43.301,-23.085,269.624,80.504,-86.626,71.1612,13176
-1.77846,1.25323,5.45921,2.2388,-8.99851,-3.19138,-3.97983,10.1013,8.59724,-2.59941,-4.34276,-1.53023,-6.268,43.301,-23.085,269.624,80.504,-86.626,71.1612,13211
-1.77846,1.25323,5.45921,2.2388,-8.99851,-3.19138,-3.97983,10.1013,8.59724,1.71835,-1.06955,0.11662,-6.268,43.301,-23.085,269.624,80.504,-86.626,71.1612,13246
-1.77846,1.25323,5.45921,2.2388,-8.99851,-3.19138,-3.97983,10.1013,8.59724,1.71835,-1.06955,0.11662,-6.306,43.649,-26.497,329.628,66.577,-144.95,71.1612,13281
-0.38005,-16.5869,-12.55231,1.63329,-9.1494,-3.1291,-1.97923,-7.62862,-9.48856,1.71835,-1.06955,0.11662,-6.306,43.649,-26.497,329.628,66.577,-144.95,71.1612,13316
-0.38005,-16.5869,-12.55231,1.63329,-9.1494,-3.1291,-1.97923,-7.62862,-9.48856,1.71835,-1.06955,0.11662,-6.306,43.649,-26.497,329.628,66.577,-144.95,71.1612,13350
-0.38005,-16.5869,-12.55231,1.63329,-9.1494,-3.1291,-1.97923,-7.62862,-9.48856,-0.96352,2.99896,-0.26515,-6.306,43.649,-26.497,329.628,66.577,-144.95,71.1612,13387
-0.38005,-16.5869,-12.55231,1.63329,-9.1494,-3.1291,-1.97923,-7.62862,-9.48856,-0.96352,2.99896,-0.26515,-12.912,44.124,-21.284,322.411,68.904,-152.437,71.1612,13420
-4.54906,-10.29947,7.95596,2.20538,-8.91893,-3.42918,-6.68862,-1.6467,11.28281,-0.96352,2.99896,-0.26515,-12.912,44.124,-21.284,322.411,68.904,-152.437,73.5715,13456
-4.54906,-10.29947,7.95596,2.20538,-8.91893,-3.42918,-6.68862,-1.6467,11.28281,-0.96352,2.99896,-0.26515,-12.912,44.124,-21.284,322.411,68.904,-152.437,73.5715,13491
-4.54906,-10.29947,7.95596,2.20538,-8.91893,-3.42918,-6.68862,-1.6467,11.28281,3.34242,5.15552,2.40349,2.621,39.536,-35.57,339.628,65.433,-147.254,73.5715,13525
-1.60561,-15.06279,0.73039,2.20538,-8.91893,-3.42918,-6.68862,-1.6467,11.28281,3.34242,5.15552,2.40349,2.621,39.536,-35.57,339.628,65.433,-147.254,73.5715,13560
-1.60561,-15.06279,0.73039,0.55282,-9.78691,-0.28504,-2.14372,-5.53617,1.00785,3.34242,5.15552,2.40349,2.621,39.536,-35.57,339.628,65.433,-147.254,73.5715,13596
-1.60561,-15.06279,0.73039,0.55282,-9.78691,-0.28504,-2.14372,-5.53617,1.00785,3.34242,5.15552,2.40349,2.621,39.536,-35.57,339.628,65.433,-147.254,73.5715,13630
-1.60561,-15.06279,0.73039,0.55282,-9.78691,-0.28504,-2.14372,-5.53617,1.00785,3.64581,-1.34526,-0.28856,-2.036,29.97,-49.248,296.879,86.364,-117.276,73.5715,13665
2.49246,-6.06322,-3.29692,0.55282,-9.78691,-0.28504,-2.14372,-5.53617,1.00785,3.64581,-1.34526,-0.28856,-2.036,29.97,-49.248,296.879,86.364,-117.276,73.5715,13701
2.49246,-6.06322,-3.29692,0.33248,-9.23399,3.2853,2.1716,2.84816,-6.46744,3.64581,-1.34526,-0.28856,-2.036,29.97,-49.248,296.879,86.364,-117.276,73.5715,13736
2.49246,-6.06322,-3.29692,0.33248,-9.23399,3.2853,2.1716,2.84816,-6.46744,3.64581,-1.34526,-0.28856,-2.036,29.97,-49.248,296.879,86.364,-117.276,72.7078,13770
2.49246,-6.06322,-3.29692,0.33248,-9.23399,3.2853,2.1716,2.84816,-6.46744,0.18428,0.33459,-0.37895,6.102,27.977,-50.146,196.629,70.323,-5.779,72.7078,13805
5.39055,-12.35454,0.64494,0.33248,-9.23399,3.2853,2.1716,2.84816,-6.46744,0.18428,0.33459,-0.37895,6.102,27.977,-50.146,196.629,70.323,-5.779,72.7078,13841
5.39055,-12.35454,0.64494,0.16727,-8.98585,3.92389,5.22952,-3.70385,-3.13259,0.18428,0.33459,-0.37895,6.102,27.977,-50.146,196.629,70.323,-5.779,72.7078,13876
5.39055,-12.35454,0.64494,0.16727,-8.98585,3.92389,5.22952,-3.70385,-3.13259,0.18428,0.33459,-0.37895,6.102,27.977,-50.146,196.629,70.323,-5.779,72.7078,13911
5.39055,-12.35454,0.64494,0.16727,-8.98585,3.92389,5.22952,-3.70385,-3.13259,-1.9863,-0.67841,-1.00021,1.096,35.284,-42.493,186.52,66.391,-2.441,72.7078,13946
-2.81926,-19.6582,2.62839,1.069,-9.60823,1.64608,-3.87314,-10.18586,1.00559,-1.9863,-0.67841,-1.00021,1.096,35.284,-42.493,186.52,66.391,-2.441,72.7078,13980
-2.81926,-19.6582,2.62839,1.069,-9.60823,1.64608,-3.87314,-10.18586,1.00559,-1.9863,-0.67841,-1.00021,1.096,35.284,-42.493,186.52,66.391,-2.441,72.7078,14016
-2.81926,-19.6582,2.62839,1.069,-9.60823,1.64608,-3.87314,-10.18586,1.00559,-2.45749,1.28429,-0.51865,1.096,35.284,-42.493,186.52,66.391,-2.441,72.7078,14050
-2.81926,-19.6582,2.62839,1.069,-9.60823,1.64608,-3.87314,-10.18586,1.00559,-2.45749,1.28429,-0.51865,-0.533,42.943,-32.718,221.98,78.455,-33.001,72.7078,14085
2.60883,-9.81778,2.54146,1.88312,-9.51724,-1.43051,0.7366,-0.35558,3.9637,-2.45749,1.28429,-0.51865,-0.533,42.943,-32.718,221.98,78.455,-33.001,68.7906,14120
2.60883,-9.81778,2.54146,1.88312,-9.51724,-1.43051,0.7366,-0.35558,3.9637,-2.45749,1.28429,-0.51865,-0.533,42.943,-32.718,221.98,78.455,-33.001,68.7906,14156
2.60883,-9.81778,2.54146,1.88312,-9.51724,-1.43051,0.7366,-0.35558,3.9637,-1.91565,-2.44154,-0.51721,-0.533,42.943,-32.718,221.98,78.455,-33.001,68.7906,14190
-1.73605,2.89008,3.37062,1.88312,-9.51724,-1.43051,0.7366,-0.35558,3.9637,-1.91565,-2.44154,-0.51721,-8.807,44.057,-22.43,305.815,76.046,-127.222,68.7906,14225
-1.73605,2.89008,3.37062,1.65606,-8.94186,-3.67027,-3.31135,11.39584,6.86189,-1.91565,-2.44154,-0.51721,-8.807,44.057,-22.43,305.815,76.046,-127.222,68.7906,14260
-1.73605,2.89008,3.37062,1.65606,-8.94186,-3.67027,-3.31135,11.39584,6.86189,-1.91565,-2.44154,-0.51721,-8.807,44.057,-22.43,305.815,76.046,-127.222,68.7906,14296
-1.73605,2.89008,3.37062,1.65606,-8.94186,-3.67027,-3.31135,11.39584,6.86189,0.74077,-1.97078,-0.12282,-12.714,43.446,-20.9,325.879,65.758,-155.715,68.7906,14330
-1.23828,-12.94632,-9.61401,1.65606,-8.94186,-3.67027,-3.31135,11.39584,6.86189,0.74077,-1.97078,-0.12282,-12.714,43.446,-20.9,325.879,65.758,-155.715,68.7906,14365
-1.23828,-12.94632,-9.61401,1.16952,-8.8471,-4.06588,-2.37072,-4.37973,-5.67706,0.74077,-1.97078,-0.12282,-12.714,43.446,-20.9,325.879,65.758,-155.715,68.7906,14401
-1.23828,-12.94632,-9.61401,1.16952,-8.8471,-4.06588,-2.37072,-4.37973,-5.67706,0.74077,-1.97078,-0.12282,-12.714,43.446,-20.9,325.879,65.758,-155.715,71.4633,14435
-1.23828,-12.94632,-9.61401,1.16952,-8.8471,-4.06588,-2.37072,-4.37973,-5.67706,0.91039,1.97842,0.39987,-11.69,42.754,-26.195,333.834,64.443,-163.953,71.4633,14471
-3.12473,-8.84067,5.08682,1.16952,-8.8471,-4.06588,-2.37072,-4.37973,-5.67706,0.91039,1.97842,0.39987,-11.69,42.754,-26.195,333.834,64.443,-163.953,71.4633,14505
-3.12473,-8.84067,5.08682,1.37063,-9.27095,-2.88812,-4.44225,0.07104,7.86303,0.91039,1.97842,0.39987,-11.69,42.754,-26.195,333.834,64.443,-163.953,71.4633,14540
-3.12473,-8.84067,5.08682,1.37063,-9.27095,-2.88812,-4.44225,0.07104,7.86303,2.4864,1.909,2.37642,-11.69,42.754,-26.195,333.834,64.443,-163.953,71.4633,14575
-3.12473,-8.84067,5.08682,1.37063,-9.27095,-2.88812,-4.44225,0.07104,7.86303,2.4864,1.909,2.37642,-0.844,39.197,-39.539,338.77,70.975,-154.612,71.4633,14610
2.15776,-11.57806,0.9165,-0.21103,-9.80413,0.07024,2.3628,-2.05249,0.84826,2.4864,1.909,2.37642,-0.844,39.197,-39.539,338.77,70.975,-154.612,71.4633,14647
2.15776,-11.57806,0.9165,-0.21103,-9.80413,0.07024,2.3628,-2.05249,0.84826,2.4864,1.909,2.37642,-0.844,39.197,-39.539,338.77,70.975,-154.612,71.4633,14681
2.15776,-11.57806,0.9165,-0.21103,-9.80413,0.07024,2.3628,-2.05249,0.84826,3.82948,4.61409,-0.63878,-0.844,39.197,-39.539,338.77,70.975,-154.612,71.4633,14715
2.15776,-11.57806,0.9165,-0.21103,-9.80413,0.07024,2.3628,-2.05249,0.84826,3.82948,4.61409,-0.63878,6.619,26.756,-50.465,115.748,88.7,71.59,72.7966,14750
-0.34422,-6.73914,-7.37988,-0.49455,-9.2416,3.24324,0.12965,2.11613,-10.48754,3.82948,4.61409,-0.63878,6.619,26.756,-50.465,115.748,88.7,71.59,72.7966,14786
-0.34422,-6.73914,-7.37988,-0.49455,-9.2416,3.24324,0.12965,2.11613,-10.48754,3.82948,4.61409,-0.63878,6.619,26.756,-50.465,115.748,88.7,71.59,72.7966,14820
-0.34422,-6.73914,-7.37988,-0.49455,-9.2416,3.24324,0.12965,2.11613,-10.48754,-0.3551,-0.7403,-0.43719,6.619,26.756,-50.465,115.748,88.7,71.59,72.7966,14855
-0.34422,-6.73914,-7.37988,-0.49455,-9.2416,3.24324,0.12965,2.11613,-10.48754,-0.3551,-0.7403,-0.43719,4.317,27.423,-50.407,174.63,70.455,8.67,72.7966,14891
4.91064,-13.01576,-4.06053,-0.05638,-9.34323,2.97847,4.96483,-4.03548,-6.9233,-0.3551,-0.7403,-0.43719,4.317,27.423,-50.407,174.63,70.455,8.67,72.7966,14925
4.91064,-13.01576,-4.06053,-0.05638,-9.34323,2.97847,4.96483,-4.03548,-6.9233,-0.3551,-0.7403,-0.43719,4.317,27.423,-50.407,174.63,70.455,8.67,72.7966,14960
4.91064,-13.01576,-4.06053,-0.05638,-9.34323,2.97847,4.96483,-4.03548,-6.9233,-3.27318,0.85423,-1.33292,4.317,27.423,-50.407,174.63,70.455,8.67,72.7966,14995
-7.83948,-19.55324,0.68413,-0.05638,-9.34323,2.97847,4.96483,-4.03548,-6.9233,-3.27318,0.85423,-1.33292,1.434,37.686,-37.225,180.724,72.316,1.084,72.7966,15031
-7.83948,-19.55324,0.68413,0.84111,-9.77005,0.0947,-8.6758,-9.83877,0.58997,-3.27318,0.85423,-1.33292,1.434,37.686,-37.225,180.724,72.316,1.084,72.7966,15067
-7.83948,-19.55324,0.68413,0.84111,-9.77005,0.0947,-8.6758,-9.83877,0.58997,-3.27318,0.85423,-1.33292,1.434,37.686,-37.225,180.724,72.316,1.084,68.4261,15101
-7.83948,-19.55324,0.68413,0.84111,-9.77005,0.0947,-8.6758,-9.83877,0.58997,-1.61041,-0.91806,-1.71329,-5.995,39.771,-27.917,258.329,85.049,-83.576,68.4261,15135
1.40428,-5.19031,3.75583,0.84111,-9.77005,0.0947,-8.6758,-9.83877,0.58997,-1.61041,-0.91806,-1.71329,-5.995,39.771,-27.917,258.329,85.049,-83.576,68.4261,15170
1.40428,-5.19031,3.75583,1.75008,-9.28775,-2.61637,-0.32465,3.98523,6.34059,-1.61041,-0.91806,-1.71329,-5.995,39.771,-27.917,258.329,85.049,-83.576,68.4261,15206
1.40428,-5.19031,3.75583,1.75008,-9.28775,-2.61637,-0.32465,3.98523,6.34059,-0.27731,-3.13731,-0.23642,-5.995,39.771,-27.917,258.329,85.049,-83.576,68.4261,15242
1.40428,-5.19031,3.75583,1.75008,-9.28775,-2.61637,-0.32465,3.98523,6.34059,-0.27731,-3.13731,-0.23642,-9.784,38.6,-25.45,320.488,71.278,-146.222,68.4261,15275
-3.31175,-5.20561,-7.82521,1.75008,-9.28775,-2.61637,-0.32465,3.98523,6.34059,-0.27731,-3.13731,-0.23642,-9.784,38.6,-25.45,320.488,71.278,-146.222,68.4261,15311
-3.31175,-5.20561,-7.82521,0.64558,-9.08018,-3.64747,-3.93154,3.51189,-4.32343,-0.27731,-3.13731,-0.23642,-9.784,38.6,-25.45,320.488,71.278,-146.222,68.4261,15346
-3.31175,-5.20561,-7.82521,0.64558,-9.08018,-3.64747,-3.93154,3.51189,-4.32343,-1.66458,-1.94818,-1.07188,-9.784,38.6,-25.45,320.488,71.278,-146.222,68.4261,15381
-3.31175,-5.20561,-7.82521,0.64558,-9.08018,-3.64747,-3.93154,3.51189,-4.32343,-1.66458,-1.94818,-1.07188,-9.784,38.6,-25.45,320.488,71.278,-146.222,68.4261,15417
-3.21121,-9.69269,1.98123,1.01887,-8.81048,-4.18423,-4.20386,-1.10899,6.05776,-1.66458,-1.94818,-1.07188,-13.837,39.998,-21.878,331.834,67.808,-169.963,71.3546,15451
-3.21121,-9.69269,1.98123,1.01887,-8.81048,-4.18423,-4.20386,-1.10899,6.05776,-1.66458,-1.94818,-1.07188,-13.837,39.998,-21.878,331.834,67.808,-169.963,71.3546,15486
-3.21121,-9.69269,1.98123,1.01887,-8.81048,-4.18423,-4.20386,-1.10899,6.05776,1.86191,0.78928,0.408,-13.837,39.998,-21.878,331.834,67.808,-169.963,71.3546,15520
-3.21121,-9.69269,1.98123,1.01887,-8.81048,-4.18423,-4.20386,-1.10899,6.05776,1.86191,0.78928,0.408,-4.8,37.286,-37.218,344.004,63.951,-166.315,71.3546,15556
-5.29616,-11.03268,4.83264,0.45398,-9.66996,-1.56719,-5.73526,-1.67943,6.3485,1.86191,0.78928,0.408,-4.8,37.286,-37.218,344.004,63.951,-166.315,71.3546,15590
-5.29616,-11.03268,4.83264,0.45398,-9.66996,-1.56719,-5.73526,-1.67943,6.3485,1.86191,0.78928,0.408,-4.8,37.286,-37.218,344.004,63.951,-166.315,71.3546,15628
-5.29616,-11.03268,4.83264,0.45398,-9.66996,-1.56719,-5.73526,-1.67943,6.3485,1.8564,-4.80559,-0.04198,-4.8,37.286,-37.218,344.004,63.951,-166.315,71.3546,15661
3.70711,-7.82155,-1.92696,0.45398,-9.66996,-1.56719,-5.73526,-1.67943,6.3485,1.8564,-4.80559,-0.04198,-6.206,27.228,-52.211,338.777,80.423,-163.845,71.3546,15696
3.70711,-7.82155,-1.92696,-0.25003,-9.59286,2.02109,3.95025,1.50702,-3.89236,1.8564,-4.80559,-0.04198,-6.206,27.228,-52.211,338.777,80.423,-163.845,71.3546,15731
3.70711,-7.82155,-1.92696,-0.25003,-9.59286,2.02109,3.95025,1.50702,-3.89236,1.8564,-4.80559,-0.04198,-6.206,27.228,-52.211,338.777,80.423,-163.845,74.1368,15766
3.70711,-7.82155,-1.92696,-0.25003,-9.59286,2.02109,3.95025,1.50702,-3.89236,0.89653,2.61922,-0.31808,-6.206,27.228,-52.211,338.777,80.423,-163.845,74.1368,15801
1.3047,-8.05879,-1.01367,-0.25003,-9.59286,2.02109,3.95025,1.50702,-3.89236,0.89653,2.61922,-0.31808,4.565,28.065,-53.664,177.977,78.014,7.052,74.1368,15836
1.3047,-8.05879,-1.01367,-0.78812,-9.21371,3.26447,2.05999,0.77113,-4.14216,0.89653,2.61922,-0.31808,4.565,28.065,-53.664,177.977,78.014,7.052,74.1368,15871
1.3047,-8.05879,-1.01367,-0.78812,-9.21371,3.26447,2.05999,0.77113,-4.14216,0.29605,0.33887,-0.78905,4.565,28.065,-53.664,177.977,78.014,7.052,74.1368,15906
1.3047,-8.05879,-1.01367,-0.78812,-9.21371,3.26447,2.05999,0.77113,-4.14216,0.29605,0.33887,-0.78905,-0.574,35.478,-47.406,158.659,69.974,13.573,74.1368,15941
2.384,-16.84189,-1.70775,-0.78812,-9.21371,3.26447,2.05999,0.77113,-4.14216,0.29605,0.33887,-0.78905,-0.574,35.478,-47.406,158.659,69.974,13.573,74.1368,15976
2.384,-16.84189,-1.70775,0.53429,-9.57535,2.04882,1.8638,-7.51898,-3.70255,0.29605,0.33887,-0.78905,-0.574,35.478,-47.406,158.659,69.974,13.573,74.1368,16010
2.384,-16.84189,-1.70775,0.53429,-9.57535,2.04882,1.8638,-7.51898,-3.70255,-2.10236,1.02832,-0.14337,-0.574,35.478,-47.406,158.659,69.974,13.573,74.1368,16045
2.384,-16.84189,-1.70775,0.53429,-9.57535,2.04882,1.8638,-7.51898,-3.70255,-2.10236,1.02832,-0.14337,-5.002,42.43,-34.377,188.757,77.531,-14.616,68.5258,16080
-2.63545,-11.68703,1.85812,1.25592,-9.6782,-0.96205,-3.88215,-2.07987,2.81311,-2.10236,1.02832,-0.14337,-5.002,42.43,-34.377,188.757,77.531,-14.616,68.5258,16115
-2.63545,-11.68703,1.85812,1.25592,-9.6782,-0.96205,-3.88215,-2.07987,2.81311,-2.10236,1.02832,-0.14337,-5.002,42.43,-34.377,188.757,77.531,-14.616,68.5258,16151
-2.63545,-11.68703,1.85812,1.25592,-9.6782,-0.96205,-3.88215,-2.07987,2.81311,-2.39151,-2.85123,-1.16005,-5.002,42.43,-34.377,188.757,77.531,-14.616,68.5258,16186
-2.63545,-11.68703,1.85812,1.25592,-9.6782,-0.96205,-3.88215,-2.07987,2.81311,-2.39151,-2.85123,-1.16005,-5.002,42.43,-34.377,188.757,77.531,-14.616,68.5258,16220
-1.81487,1.97894,4.15497,1.49654,-8.94334,-3.73463,-3.25415,10.58009,7.7467,-2.39151,-2.85123,-1.16005,-15.688,42.305,-21.281,284.532,80.716,-127.453,68.5258,16255
-1.81487,1.97894,4.15497,1.49654,-8.94334,-3.73463,-3.25415,10.58009,7.7467,-2.39151,-2.85123,-1.16005,-15.688,42.305,-21.281,284.532,80.716,-127.453,68.5258,16291
-1.81487,1.97894,4.15497,1.49654,-8.94334,-3.73463,-3.25415,10.58009,7.7467,1.70613,-2.03308,-0.13359,-15.688,42.305,-21.281,284.532,80.716,-127.453,68.5258,16325
0.70181,-17.73007,-18.491,1.49654,-8.94334,-3.73463,-3.25415,10.58009,7.7467,1.70613,-2.03308,-0.13359,-18.179,40.854,-20.909,319.285,65.779,-158.163,68.5258,16361
0.70181,-17.73007,-18.491,0.78983,-9.01772,-3.7719,-0.06384,-8.98837,-14.83455,1.70613,-2.03308,-0.13359,-18.179,40.854,-20.909,319.285,65.779,-158.163,72.3737,16395
0.70181,-17.73007,-18.491,0.78983,-9.01772,-3.7719,-0.06384,-8.98837,-14.83455,1.70613,-2.03308,-0.13359,-18.179,40.854,-20.909,319.285,65.779,-158.163,72.3737,16430
-2.7312,-7.54248,-2.26956,0.78983,-9.01772,-3.7719,-0.06384,-8.98837,-14.83455,-0.23761,3.59334,0.29399,-18.179,40.854,-20.909,319.285,65.779,-158.163,72.3737,16465
-2.7312,-7.54248,-2.26956,0.78983,-9.01772,-3.7719,-0.06384,-8.98837,-14.83455,-0.23761,3.59334,0.29399,-22.186,38.249,-23.663,320.76,66.861,-168.173,72.3737,16500
-2.7312,-7.54248,-2.26956,1.361,-9.044,-3.53894,-4.14691,-1.02739,7.30619,-0.23761,3.59334,0.29399,-22.186,38.249,-23.663,320.76,66.861,-168.173,72.3737,16535
-4.66905,-8.19705,3.4975,1.361,-9.044,-3.53894,-4.14691,-1.02739,7.30619,-0.23761,3.59334,0.29399,-22.186,38.249,-23.663,320.76,66.861,-168.173,72.3737,16570
-4.66905,-8.19705,3.4975,1.361,-9.044,-3.53894,-4.14691,-1.02739,7.30619,2.93559,4.57948,2.6181,-22.186,38.249,-23.663,320.76,66.861,-168.173,72.3737,16605
-4.66905,-8.19705,3.4975,1.361,-9.044,-3.53894,-4.14691,-1.02739,7.30619,2.93559,4.57948,2.6181,-11.336,34.665,-41.19,331.059,67.255,-158.964,72.3737,16640
-4.66905,-8.19705,3.4975,-0.20882,-9.79445,-0.44225,-0.76848,-4.72427,1.26726,2.93559,4.57948,2.6181,-11.336,34.665,-41.19,331.059,67.255,-158.964,72.3737,16675
3.15172,-8.97813,2.83685,-0.20882,-9.79445,-0.44225,-0.76848,-4.72427,1.26726,3.42917,1.13625,-0.59337,-11.336,34.665,-41.19,331.059,67.255,-158.964,75.0124,16710
3.15172,-8.97813,2.83685,-0.20882,-9.79445,-0.44225,-0.76848,-4.72427,1.26726,3.42917,1.13625,-0.59337,-4.953,5.531,-26.686,14.643,87.141,154.725,75.0124,16745
3.15172,-8.97813,2.83685,-0.23221,-9.32602,3.02355,1.77434,2.9311,-6.82869,3.42917,1.13625,-0.59337,-4.953,5.531,-26.686,14.643,87.141,154.725,75.0124,16781
3.15172,-8.97813,2.83685,-0.23221,-9.32602,3.02355,1.77434,2.9311,-6.82869,3.42917,1.13625,-0.59337,-4.953,5.531,-26.686,14.643,87.141,154.725,75.0124,16815
-0.38841,-9.02353,-2.8188,-0.23221,-9.32602,3.02355,1.77434,2.9311,-6.82869,-0.49661,-0.36319,-0.47324,-4.953,5.531,-26.686,14.643,87.141,154.725,75.0124,16850
-0.38841,-9.02353,-2.8188,-0.23221,-9.32602,3.02355,1.77434,2.9311,-6.82869,-0.49661,-0.36319,-0.47324,-4.953,5.531,-26.686,14.643,87.141,154.725,75.0124,16885
-0.38841,-9.02353,-2.8188,0.03546,-9.22484,3.32738,6.60821,-3.19305,-2.27381,-0.49661,-0.36319,-0.47324,-1.3,5.353,-30.066,172.999,71.987,4.392,75.0124,16921
-0.38841,-9.02353,-2.8188,0.03546,-9.22484,3.32738,6.60821,-3.19305,-2.27381,-0.49661,-0.36319,-0.47324,-1.3,5.353,-30.066,172.999,71.987,4.392,75.0124,16955
4.48682,-14.08717,-4.19786,0.03546,-9.22484,3.32738,6.60821,-3.19305,-2.27381,-2.91971,0.30141,-1.48727,-1.3,5.353,-30.066,172.999,71.987,4.392,75.0124,16991
4.48682,-14.08717,-4.19786,0.03546,-9.22484,3.32738,6.60821,-3.19305,-2.27381,-2.91971,0.30141,-1.48727,-1.3,5.353,-30.066,172.999,71.987,4.392,75.0124,17025
4.48682,-14.08717,-4.19786,1.04094,-9.71793,0.80536,-6.75466,-12.78436,2.30965,-2.91971,0.30141,-1.48727,-0.887,18.329,-23.393,177.218,70.165,-0.611,67.1653,17060
4.48682,-14.08717,-4.19786,1.04094,-9.71793,0.80536,-6.75466,-12.78436,2.30965,-2.91971,0.30141,-1.48727,-0.887,18.329,-23.393,177.218,70.165,-0.611,67.1653,17095
-6.01024,-13.7973,0.6136,1.04094,-9.71793,0.80536,-6.75466,-12.78436,2.30965,-2.6049,-0.07527,-0.52577,-0.887,18.329,-23.393,177.218,70.165,-0.611,67.1653,17131
-6.01024,-13.7973,0.6136,1.04094,-9.71793,0.80536,-6.75466,-12.78436,2.30965,-2.6049,-0.07527,-0.52577,-9.888,31.128,-10.359,190.412,82.287,-52.272,67.1653,17165
-6.01024,-13.7973,0.6136,1.67366,-9.40701,-2.20848,1.19493,2.36765,5.08091,-2.6049,-0.07527,-0.52577,-9.888,31.128,-10.359,190.412,82.287,-52.272,67.1653,17201
-1.1664,2.56541,3.89764,1.67366,-9.40701,-2.20848,1.19493,2.36765,5.08091,-2.6049,-0.07527,-0.52577,-9.888,31.128,-10.359,190.412,82.287,-52.272,67.1653,17236
-1.1664,2.56541,3.89764,1.67366,-9.40701,-2.20848,1.19493,2.36765,5.08091,-0.89592,-2.7541,-0.38019,-9.888,31.128,-10.359,190.412,82.287,-52.272,67.1653,17270
-0.92142,0.99719,0.5264,1.67366,-9.40701,-2.20848,1.19493,2.36765,5.08091,-0.89592,-2.7541,-0.38019,-18.065,32.642,-2.983,274.21,73.587,-142.844,67.1653,17305
-0.92142,0.99719,0.5264,1.238,-9.09493,-3.45254,-2.08829,9.56955,3.78056,-0.89592,-2.7541,-0.38019,-18.065,32.642,-2.983,274.21,73.587,-142.844,67.1653,17340
-0.92142,0.99719,0.5264,1.238,-9.09493,-3.45254,-2.08829,9.56955,3.78056,-0.69597,-2.22469,-0.21445,-18.065,32.642,-2.983,274.21,73.587,-142.844,71.0615,17375
-0.92142,0.99719,0.5264,1.238,-9.09493,-3.45254,-2.08829,9.56955,3.78056,-0.69597,-2.22469,-0.21445,-18.065,32.642,-2.983,274.21,73.587,-142.844,71.0615,17411
-2.91364,-5.22935,-3.90413,0.84082,-8.93888,-3.94459,-3.71407,3.28023,-0.14898,-0.69597,-2.22469,-0.21445,-23.178,34.468,10.374,260.027,68.037,-160.273,71.0615,17446
-2.91364,-5.22935,-3.90413,0.84082,-8.93888,-3.94459,-3.71407,3.28023,-0.14898,-0.69597,-2.22469,-0.21445,-23.178,34.468,10.374,260.027,68.037,-160.273,71.0615,17481
-2.91364,-5.22935,-3.90413,0.84082,-8.93888,-3.94459,-3.71407,3.28023,-0.14898,0.69984,0.07254,-0.41153,-23.178,34.468,10.374,260.027,68.037,-160.273,71.0615,17516
-2.91364,-5.22935,-3.90413,0.84082,-8.93888,-3.94459,-3.71407,3.28023,-0.14898,0.69984,0.07254,-0.41153,-18.274,34.9,-5.928,310.883,65.715,-167.967,71.0615,17550
-3.84445,-8.04782,4.58128,1.19724,-9.43965,-2.37276,-4.98407,0.93748,6.83984,0.69984,0.07254,-0.41153,-18.274,34.9,-5.928,310.883,65.715,-167.967,71.0615,17586
-3.84445,-8.04782,4.58128,1.19724,-9.43965,-2.37276,-4.98407,0.93748,6.83984,0.69984,0.07254,-0.41153,-18.274,34.9,-5.928,310.883,65.715,-167.967,71.0615,17621
-3.84445,-8.04782,4.58128,1.19724,-9.43965,-2.37276,-4.98407,0.93748,6.83984,2.78757,2.29913,2.11415,-18.274,34.9,-5.928,310.883,65.715,-167.967,71.0615,17656
-3.84445,-8.04782,4.58128,1.19724,-9.43965,-2.37276,-4.98407,0.93748,6.83984,2.78757,2.29913,2.11415,-12.614,30.057,-19.116,313.026,74.276,-153.225,74.0185,17691
1.68373,-10.13205,1.56705,-0.58865,-9.73396,1.03627,2.24934,-0.77918,0.57134,2.78757,2.29913,2.11415,-12.614,30.057,-19.116,313.026,74.276,-153.225,74.0185,17726
1.68373,-10.13205,1.56705,-0.58865,-9.73396,1.03627,2.24934,-0.77918,0.57134,2.78757,2.29913,2.11415,-12.614,30.057,-19.116,313.026,74.276,-153.225,74.0185,17760
1.68373,-10.13205,1.56705,-0.58865,-9.73396,1.03627,2.24934,-0.77918,0.57134,3.49352,5.43304,-0.86501,-12.614,30.057,-19.116,313.026,74.276,-153.225,74.0185,17796
1.53418,-8.30951,-6.85847,-0.58865,-9.73396,1.03627,2.24934,-0.77918,0.57134,3.49352,5.43304,-0.86501,-12.614,30.057,-19.116,313.026,74.276,-153.225,74.0185,17830
1.53418,-8.30951,-6.85847,-1.08497,-9.00952,3.71776,2.56351,0.23805,-10.38561,3.49352,5.43304,-0.86501,5.02,19.797,-33.099,157.25,83.02,29.599,74.0185,17865
1.53418,-8.30951,-6.85847,-1.08497,-9.00952,3.71776,2.56351,0.23805,-10.38561,3.49352,5.43304,-0.86501,5.02,19.797,-33.099,157.25,83.02,29.599,74.0185,17900
1.53418,-8.30951,-6.85847,-1.08497,-9.00952,3.71776,2.56351,0.23805,-10.38561,-0.30359,-1.1897,-0.57545,5.02,19.797,-33.099,157.25,83.02,29.599,74.0185,17936
3.29987,-14.28517,-2.46606,-1.08497,-9.00952,3.71776,2.56351,0.23805,-10.38561,-0.30359,-1.1897,-0.57545,-4.971,23.637,-22.481,128.234,66.739,16.269,74.0185,17971
3.29987,-14.28517,-2.46606,-0.09263,-9.38679,2.83724,3.38847,-5.30579,-5.18016,-0.30359,-1.1897,-0.57545,-4.971,23.637,-22.481,128.234,66.739,16.269,70.1847,18005
3.29987,-14.28517,-2.46606,-0.09263,-9.38679,2.83724,3.38847,-5.30579,-5.18016,-2.83479,1.41296,-0.47223,-4.971,23.637,-22.481,128.234,66.739,16.269,70.1847,18041
3.29987,-14.28517,-2.46606,-0.09263,-9.38679,2.83724,3.38847,-5.30579,-5.18016,-2.83479,1.41296,-0.47223,-4.971,23.637,-22.481,128.234,66.739,16.269,70.1847,18076
-7.34389,-14.72765,0.6479,0.64229,-9.77531,-0.44858,-7.977,-5.09205,1.09007,-2.83479,1.41296,-0.47223,-5.687,29.192,-5.658,65.348,73.174,1.87,70.1847,18111
-7.34389,-14.72765,0.6479,0.64229,-9.77531,-0.44858,-7.977,-5.09205,1.09007,-2.83479,1.41296,-0.47223,-5.687,29.192,-5.658,65.348,73.174,1.87,70.1847,18147
3.78777,-8.88242,2.83502,0.64229,-9.77531,-0.44858,-7.977,-5.09205,1.09007,-1.63383,-2.87363,-1.59763,-5.687,29.192,-5.658,65.348,73.174,1.87,70.1847,18180
3.78777,-8.88242,2.83502,0.64229,-9.77531,-0.44858,-7.977,-5.09205,1.09007,-1.63383,-2.87363,-1.59763,-5.687,29.192,-5.658,65.348,73.174,1.87,70.1847,18216
3.78777,-8.88242,2.83502,1.33958,-9.22958,-3.03163,-1.59338,9.35568,7.30102,-1.63383,-2.87363,-1.59763,-13.509,27.348,8.061,186.007,85.418,-124.931,70.1847,18253
3.78777,-8.88242,2.83502,1.33958,-9.22958,-3.03163,-1.59338,9.35568,7.30102,-1.63383,-2.87363,-1.59763,-13.509,27.348,8.061,186.007,85.418,-124.931,70.1847,18286
-1.15431,2.33034,2.80226,1.33958,-9.22958,-3.03163,-1.59338,9.35568,7.30102,1.34267,-2.22408,-0.17513,-13.509,27.348,8.061,186.007,85.418,-124.931,70.1847,18321
-1.15431,2.33034,2.80226,1.33958,-9.22958,-3.03163,-1.59338,9.35568,7.30102,1.34267,-2.22408,-0.17513,-12.567,24.969,6.407,260.049,70.246,-156.161,70.9227,18355
-1.15431,2.33034,2.80226,0.52213,-9.27811,-3.1328,-3.25136,-9.02665,-14.11338,1.34267,-2.22408,-0.17513,-12.567,24.969,6.407,260.049,70.246,-156.161,70.9227,18390
-1.15431,2.33034,2.80226,0.52213,-9.27811,-3.1328,-3.25136,-9.02665,-14.11338,1.34267,-2.22408,-0.17513,-12.567,24.969,6.407,260.049,70.246,-156.161,70.9227,18425
-2.77892,-9.54436,-5.13055,0.52213,-9.27811,-3.1328,-3.25136,-9.02665,-14.11338,-1.52756,1.39871,-0.50827,-12.567,24.969,6.407,260.049,70.246,-156.161,70.9227,18461
-2.77892,-9.54436,-5.13055,0.52213,-9.27811,-3.1328,-3.25136,-9.02665,-14.11338,-1.52756,1.39871,-0.50827,-12.567,24.969,6.407,260.049,70.246,-156.161,70.9227,18496
-2.77892,-9.54436,-5.13055,0.94559,-9.06271,-3.62539,-4.32672,-5.14363,8.44517,-1.52756,1.39871,-0.50827,-16.978,23.624,5.602,268.291,71.103,-170.538,70.9227,18531
-2.77892,-9.54436,-5.13055,0.94559,-9.06271,-3.62539,-4.32672,-5.14363,8.44517,-1.52756,1.39871,-0.50827,-16.978,23.624,5.602,268.291,71.103,-170.538,70.9227,18566
-3.07727,-7.71284,5.10887,0.94559,-9.06271,-3.62539,-4.32672,-5.14363,8.44517,3.09645,3.50497,1.62993,-16.978,23.624,5.602,268.291,71.103,-170.538,70.9227,18601
-3.07727,-7.71284,5.10887,0.94559,-9.06271,-3.62539,-4.32672,-5.14363,8.44517,3.09645,3.50497,1.62993,-16.978,23.624,5.602,268.291,71.103,-170.538,70.9227,18635
-3.07727,-7.71284,5.10887,-0.40098,-9.79607,-0.21607,-1.76843,-4.16066,1.95637,3.09645,3.50497,1.62993,-0.206,20.335,-15.189,349.807,67.539,-165.381,74.862,18670
3.75761,-11.27699,0.95757,-0.40098,-9.79607,-0.21607,-1.76843,-4.16066,1.95637,1.5076,-2.93655,-0.09308,-0.206,20.335,-15.189,349.807,67.539,-165.381,74.862,18706
3.75761,-11.27699,0.95757,-0.40098,-9.79607,-0.21607,-1.76843,-4.16066,1.95637,1.5076,-2.93655,-0.09308,-0.206,20.335,-15.189,349.807,67.539,-165.381,74.862,18741
3.75761,-11.27699,0.95757,-0.68381,-9.43243,2.59462,5.1777,2.78852,-2.7279,1.5076,-2.93655,-0.09308,-0.591,11.818,-26.135,58.46,87.338,118.318,74.862,18777
3.75761,-11.27699,0.95757,-0.68381,-9.43243,2.59462,5.1777,2.78852,-2.7279,1.5076,-2.93655,-0.09308,-0.591,11.818,-26.135,58.46,87.338,118.318,74.862,18811
0.17273,-8.59953,-7.03398,-0.68381,-9.43243,2.59462,5.1777,2.78852,-2.7279,1.74522,3.14171,-0.14317,-0.591,11.818,-26.135,58.46,87.338,118.318,74.862,18845
0.17273,-8.59953,-7.03398,-0.68381,-9.43243,2.59462,5.1777,2.78852,-2.7279,1.74522,3.14171,-0.14317,-0.591,11.818,-26.135,58.46,87.338,118.318,74.862,18880
0.17273,-8.59953,-7.03398,-1.35104,-8.93751,3.80343,5.09402,-2.87735,-5.91242,1.74522,3.14171,-0.14317,4.99,9.235,-29.778,173.983,74.121,14.765,74.862,18915
0.17273,-8.59953,-7.03398,-1.35104,-8.93751,3.80343,5.09402,-2.87735,-5.91242,1.74522,3.14171,-0.14317,4.99,9.235,-29.778,173.983,74.121,14.765,74.862,18950
3.29155,-13.17604,-0.94681,-1.35104,-8.93751,3.80343,5.09402,-2.87735,-5.91242,-1.50107,-0.31657,-1.18835,4.99,9.235,-29.778,173.983,74.121,14.765,66.6025,18986
3.29155,-13.17604,-0.94681,-1.35104,-8.93751,3.80343,5.09402,-2.87735,-5.91242,-1.50107,-0.31657,-1.18835,4.99,9.235,-29.778,173.983,74.121,14.765,66.6025,19020
3.29155,-13.17604,-0.94681,-0.2906,-9.65222,1.70896,-3.92306,-9.81641,0.62849,-1.50107,-0.31657,-1.18835,3.041,22.139,-19.257,179.133,79.818,9.651,66.6025,19056
3.29155,-13.17604,-0.94681,-0.2906,-9.65222,1.70896,-3.92306,-9.81641,0.62849,-1.50107,-0.31657,-1.18835,3.041,22.139,-19.257,179.133,79.818,9.651,66.6025,19091
-6.77344,-15.61926,2.00365,-0.2906,-9.65222,1.70896,-3.92306,-9.81641,0.62849,-2.52977,1.52821,-0.75586,3.041,22.139,-19.257,179.133,79.818,9.651,66.6025,19125
-6.77344,-15.61926,2.00365,-0.2906,-9.65222,1.70896,-3.92306,-9.81641,0.62849,-2.52977,1.52821,-0.75586,3.041,22.139,-19.257,179.133,79.818,9.651,66.6025,19160
-6.77344,-15.61926,2.00365,0.77536,-9.67014,-1.43441,1.25262,-0.51252,4.6756,-2.52977,1.52821,-0.75586,-4.799,29.32,-5.112,79.205,79.818,9.651,66.6025,19196
-6.77344,-15.61926,2.00365,0.77536,-9.67014,-1.43441,1.25262,-0.51252,4.6756,-2.52977,1.52821,-0.75586,-4.799,29.32,-5.112,79.205,79.818,9.651,66.6025,19230
-0.31139,-0.63844,4.63989,0.77536,-9.67014,-1.43441,1.25262,-0.51252,4.6756,-1.92502,-2.69159,-0.56404,-4.799,29.32,-5.112,79.205,79.818,9.651,66.6025,19266
-0.31139,-0.63844,4.63989,0.77536,-9.67014,-1.43441,1.25262,-0.51252,4.6756,-1.92502,-2.69159,-0.56404,-4.799,29.32,-5.112,79.205,79.818,9.651,69.4029,19300
-0.31139,-0.63844,4.63989,0.62471,-9.2562,-3.1785,-2.20447,12.51627,6.66082,-1.92502,-2.69159,-0.56404,-11.118,30.058,1.164,263.568,80.429,-151.607,69.4029,19336
-0.85684,-10.8132,-9.88551,0.62471,-9.2562,-3.1785,-2.20447,12.51627,6.66082,-1.92502,-2.69159,-0.56404,-11.118,30.058,1.164,263.568,80.429,-151.607,69.4029,19370
-0.85684,-10.8132,-9.88551,0.62471,-9.2562,-3.1785,-2.20447,12.51627,6.66082,0.84909,-1.0103,0.1266,-11.118,30.058,1.164,263.568,80.429,-151.607,69.4029,19406
-0.85684,-10.8132,-9.88551,0.28658,-9.30001,-3.09807,-2.03237,-0.48441,-2.76803,0.84909,-1.0103,0.1266,-11.118,30.058,1.164,263.568,80.429,-151.607,69.4029,19441
-0.85684,-10.8132,-9.88551,0.28658,-9.30001,-3.09807,-2.03237,-0.48441,-2.76803,0.84909,-1.0103,0.1266,-14.16,27.109,8.02,269.084,71.502,-174.715,69.4029,19476
-2.25668,-13.43486,6.76071,0.28658,-9.30001,-3.09807,-2.03237,-0.48441,-2.76803,0.84441,1.62148,0.22067,-14.16,27.109,8.02,269.084,71.502,-174.715,69.4029,19510
-2.25668,-13.43486,6.76071,0.28658,-9.30001,-3.09807,-2.03237,-0.48441,-2.76803,0.84441,1.62148,0.22067,-14.16,27.109,8.02,269.084,71.502,-174.715,69.4029,19545
-2.25668,-13.43486,6.76071,0.23227,-9.61089,-1.93578,-3.98241,0.18077,6.62908,0.84441,1.62148,0.22067,-4.854,25.298,-6.335,337.203,71.502,-174.715,69.4029,19580
-2.25668,-13.43486,6.76071,0.23227,-9.61089,-1.93578,-3.98241,0.18077,6.62908,0.84441,1.62148,0.22067,-4.854,25.298,-6.335,337.203,71.502,-174.715,69.4029,19616
-3.83206,-13.35669,1.96582,0.23227,-9.61089,-1.93578,-3.98241,0.18077,6.62908,2.56378,2.07332,2.25261,-4.854,25.298,-6.335,337.203,71.502,-174.715,73.5386,19650
-3.83206,-13.35669,1.96582,0.23227,-9.61089,-1.93578,-3.98241,0.18077,6.62908,2.56378,2.07332,2.25261,-4.854,25.298,-6.335,337.203,71.502,-174.715,73.5386,19685
-3.83206,-13.35669,1.96582,-1.53184,-9.63512,0.99415,3.63031,-2.43,-0.10261,2.56378,2.07332,2.25261,-4.601,18.662,-16.983,340.498,78.533,-173.158,73.5386,19720
-3.83206,-13.35669,1.96582,-1.53184,-9.63512,0.99415,3.63031,-2.43,-0.10261,2.56378,2.07332,2.25261,-4.601,18.662,-16.983,340.498,78.533,-173.158,73.5386,19756
4.92493,-6.86635,2.5327,-1.53184,-9.63512,0.99415,3.63031,-2.43,-0.10261,3.10114,4.49437,-1.05742,-4.601,18.662,-16.983,340.498,78.533,-173.158,73.5386,19791
4.92493,-6.86635,2.5327,-1.53184,-9.63512,0.99415,3.63031,-2.43,-0.10261,3.10114,4.49437,-1.05742,-4.601,18.662,-16.983,340.498,78.533,-173.158,73.5386,19825
4.92493,-6.86635,2.5327,-1.55993,-9.04968,3.44097,0.18192,0.03869,-10.41202,3.10114,4.49437,-1.05742,8.456,7.378,-26.675,170.486,67.34,24.387,73.5386,19860
4.92493,-6.86635,2.5327,-1.55993,-9.04968,3.44097,0.18192,0.03869,-10.41202,3.10114,4.49437,-1.05742,8.456,7.378,-26.675,170.486,67.34,24.387,73.5386,19895
4.1001,-10.94893,-0.01993,-1.55993,-9.04968,3.44097,0.18192,0.03869,-10.41202,-0.77354,-0.57375,-0.24336,8.456,7.378,-26.675,170.486,67.34,24.387,73.5386,19931
4.1001,-10.94893,-0.01993,-1.55993,-9.04968,3.44097,0.18192,0.03869,-10.41202,-0.77354,-0.57375,-0.24336,6.589,14.157,-24.338,168.548,67.34,24.387,69.4493,19967
4.1001,-10.94893,-0.01993,-1.01048,-9.26602,3.04798,6.58996,-4.66153,-5.47247,-0.77354,-0.57375,-0.24336,6.589,14.157,-24.338,168.548,67.34,24.387,69.4493,20000
-1.78967,-18.93413,-0.0183,-1.01048,-9.26602,3.04798,6.58996,-4.66153,-5.47247,-0.77354,-0.57375,-0.24336,6.589,14.157,-24.338,168.548,67.34,24.387,69.4493,20036
-1.78967,-18.93413,-0.0183,-1.01048,-9.26602,3.04798,6.58996,-4.66153,-5.47247,-3.48984,1.37999,-0.56772,6.589,14.157,-24.338,168.548,67.34,24.387,69.4493,20071
-8.01773,-18.58964,1.48233,-1.01048,-9.26602,-0.2827,-7.67422,-8.91085,1.76163,-3.48984,1.37999,-0.56772,6.589,14.157,-24.338,168.548,67.34,24.387,69.4493,20105
-8.01773,-18.58964,1.48233,-0.34768,-9.79641,-0.2827,-7.67422,-8.91085,1.76163,-3.48984,1.37999,-0.56772,5.052,28.621,-9.991,71.028,87.381,129.114,69.4493,20140
-8.01773,-18.58964,1.48233,-0.34768,-9.79641,-0.2827,-7.67422,-8.91085,1.76163,-2.05064,-2.79768,-1.72163,5.052,28.621,-9.991,71.028,87.381,129.114,69.4493,20176
-8.01773,-18.58964,1.48233,-0.34768,-9.79641,-0.2827,-7.67422,-8.91085,1.76163,-2.05064,-2.79768,-1.72163,5.052,28.621,-9.991,71.028,87.381,129.114,69.4493,20211
1.23473,-2.07695,4.29791,0.47436,-9.28215,-3.12842,0.77263,6.96524,7.34546,-2.05064,-2.79768,-1.72163,5.052,28.621,-9.991,71.028,87.381,129.114,69.4493,20245
1.23473,-2.07695,4.29791,0.47436,-9.28215,-3.12842,0.77263,6.96524,7.34546,-2.05064,-2.79768,-1.72163,-6.16,31.029,7.196,298.037,71.176,-171.378,71.2699,20282
1.23473,-2.07695,4.29791,0.47436,-9.28215,-3.12842,0.77263,6.96524,7.34546,0.84604,-2.16278,-0.40604,-6.16,31.029,7.196,298.037,71.176,-171.378,71.2699,20316
1.23473,-2.07695,4.29791,0.47436,-9.28215,-3.12842,0.77263,6.96524,7.34546,0.84604,-2.16278,-0.40604,-6.16,31.029,7.196,298.037,71.176,-171.378,71.2699,20351
-1.39174,-6.91357,-10.75221,-0.19943,-9.29726,-3.11313,-1.2021,1.92727,-7.79191,0.84604,-2.16278,-0.40604,-7.318,32.092,2.934,315.234,71.176,-171.378,71.2699,20391
-1.39174,-6.91357,-10.75221,-0.19943,-9.29726,-3.11313,-1.2021,1.92727,-7.79191,0.84604,-2.16278,-0.40604,-7.318,32.092,2.934,315.234,71.176,-171.378,71.2699,20420
-1.39174,-6.91357,-10.75221,-0.19943,-9.29726,-3.11313,-1.2021,1.92727,-7.79191,-2.0537,-2.11372,-1.38504,-7.318,32.092,2.934,315.234,71.176,-171.378,71.2699,20455
-1.39174,-6.91357,-10.75221,-0.19943,-9.29726,-3.11313,-1.2021,1.92727,-7.79191,-2.0537,-2.11372,-1.38504,-7.318,32.092,2.934,315.234,71.176,-171.378,71.2699,20490
-2.67639,-9.68739,3.93002,0.09484,-9.05036,-3.77523,-2.76727,-1.01537,7.54744,-2.0537,-2.11372,-1.38504,-9.43,31.914,6.152,306.636,67.351,-178.561,71.2699,20526
-2.67639,-9.68739,3.93002,0.09484,-9.05036,-3.77523,-2.76727,-1.01537,7.54744,-2.0537,-2.11372,-1.38504,-9.43,31.914,6.152,306.636,67.351,-178.561,71.2699,20564
-2.67639,-9.68739,3.93002,0.09484,-9.05036,-3.77523,-2.76727,-1.01537,7.54744,1.95496,1.52477,0.42511,-9.43,31.914,6.152,306.636,67.351,-178.561,71.2699,20596
-3.91939,-11.23671,2.03429,0.09484,-9.05036,-3.77523,-2.76727,-1.01537,7.54744,1.95496,1.52477,0.42511,-9.43,31.914,6.152,306.636,67.351,-178.561,73.0599,20631
-3.91939,-11.23671,2.03429,-0.5777,-9.6762,-1.48586,-3.36517,-1.95386,3.45974,1.95496,1.52477,0.42511,4.199,27.617,-10.011,30.831,80.644,158.754,73.0599,20666
-3.91939,-11.23671,2.03429,-0.5777,-9.6762,-1.48586,-3.36517,-1.95386,3.45974,1.95496,1.52477,0.42511,4.199,27.617,-10.011,30.831,80.644,158.754,73.0599,20700
-3.91939,-11.23671,2.03429,-0.5777,-9.6762,-1.48586,-3.36517,-1.95386,3.45974,1.42044,-4.71008,-0.09125,4.199,27.617,-10.011,30.831,80.644,158.754,73.0599,20735
4.01018,-7.34698,1.35352,-0.5777,-9.6762,-1.48586,-3.36517,-1.95386,3.45974,1.42044,-4.71008,-0.09125,4.199,27.617,-10.011,30.831,80.644,158.754,73.0599,20770
4.01018,-7.34698,1.35352,-0.99133,-9.64836,1.44805,4.96266,1.92323,-0.03778,1.42044,-4.71008,-0.09125,0.146,19.417,-22.121,139.323,79.692,34.395,73.0599,20805
4.01018,-7.34698,1.35352,-0.99133,-9.64836,1.44805,4.96266,1.92323,-0.03778,2.46971,3.55893,-0.28346,0.146,19.417,-22.121,139.323,79.692,34.395,73.0599,20840
4.01018,-7.34698,1.35352,-0.99133,-9.64836,1.44805,4.96266,1.92323,-0.03778,2.46971,3.55893,-0.28346,0.146,19.417,-22.121,139.323,79.692,34.395,73.0599,20876
1.5638,-9.62192,-1.71428,-1.40521,-9.1551,3.22178,2.9004,-0.91382,-4.77875,2.46971,3.55893,-0.28346,0.146,19.417,-22.121,139.323,79.692,34.395,73.0599,20913
1.5638,-9.62192,-1.71428,-1.40521,-9.1551,3.22178,2.9004,-0.91382,-4.77875,2.46971,3.55893,-0.28346,3.69,16.782,-22.972,159.867,68.997,23.565,70.8254,20945
1.5638,-9.62192,-1.71428,-1.40521,-9.1551,3.22178,2.9004,-0.91382,-4.77875,0.59721,0.31403,-0.6846,3.69,16.782,-22.972,159.867,68.997,23.565,70.8254,20980
1.5638,-9.62192,-1.71428,-1.40521,-9.1551,3.22178,2.9004,-0.91382,-4.77875,0.59721,0.31403,-0.6846,3.69,16.782,-22.972,159.867,68.997,23.565,70.8254,21016
-0.71246,-17.22964,-0.33492,-0.61781,-9.55398,2.12369,-0.11363,-7.96926,-2.39335,0.59721,0.31403,-0.6846,3.69,16.782,-22.972,159.867,68.997,23.565,70.8254,21051
-0.71246,-17.22964,-0.33492,-0.61781,-9.55398,2.12369,-0.11363,-7.96926,-2.39335,0.59721,0.31403,-0.6846,1.411,21.997,-14.827,160.929,76.966,16.221,70.8254,21086
-0.71246,-17.22964,-0.33492,-0.61781,-9.55398,2.12369,-0.11363,-7.96926,-2.39335,-1.91299,1.47589,-0.40198,1.411,21.997,-14.827,160.929,76.966,16.221,70.8254,21120
-0.71246,-17.22964,-0.33492,-0.61781,-9.55398,2.12369,-0.11363,-7.96926,-2.39335,-1.91299,1.47589,-0.40198,1.411,21.997,-14.827,160.929,76.966,16.221,70.8254,21155
-0.09946,-12.56648,1.73981,0.28536,-9.76019,-0.90977,-0.38155,-2.91794,2.63917,-1.91299,1.47589,-0.40198,-3.328,26.601,-3.519,323.718,84.421,-162.585,70.8254,21191
-0.09946,-12.56648,1.73981,0.28536,-9.76019,-0.90977,-0.38155,-2.91794,2.63917,-1.91299,1.47589,-0.40198,-3.328,26.601,-3.519,323.718,84.421,-162.585,70.8254,21225
-0.09946,-12.56648,1.73981,0.28536,-9.76019,-0.90977,-0.38155,-2.91794,2.63917,-2.83723,-3.0685,-0.83853,-3.328,26.601,-3.519,323.718,84.421,-162.585,69.4587,21260
-1.33369,1.52765,3.55241,0.28536,-9.76019,-0.90977,-0.38155,-2.91794,2.63917,-2.83723,-3.0685,-0.83853,-3.328,26.601,-3.519,323.718,84.421,-162.585,69.4587,21295
-1.33369,1.52765,3.55241,0.39617,-9.02124,-3.825,-1.71341,10.17435,7.21861,-2.83723,-3.0685,-0.83853,-9.091,25.652,5.153,299.469,66.913,-174.087,69.4587,21330
-1.33369,1.52765,3.55241,0.39617,-9.02124,-3.825,-1.71341,10.17435,7.21861,1.40945,-1.69772,-2.40E-04,-9.091,25.652,5.153,299.469,66.913,-174.087,69.4587,21367
-1.33369,1.52765,3.55241,0.39617,-9.02124,-3.825,-1.71341,10.17435,7.21861,1.40945,-1.69772,-2.40E-04,-9.091,25.652,5.153,299.469,66.913,-174.087,69.4587,21401
-0.52718,-20.57307,-15.73428,0.39617,-9.02124,-3.825,-1.71341,10.17435,7.21861,1.40945,-1.69772,-2.40E-04,-9.091,25.652,5.153,299.469,66.913,-174.087,69.4587,21436
-0.52718,-20.57307,-15.73428,-0.31526,-9.08701,-3.67387,-0.22122,-11.75425,-12.16884,1.40945,-1.69772,-2.40E-04,-12.494,25.502,8.517,280.758,67.913,175.095,69.4587,21470
-0.52718,-20.57307,-15.73428,-0.31526,-9.08701,-3.67387,-0.22122,-11.75425,-12.16884,1.40945,-1.69772,-2.40E-04,-12.494,25.502,8.517,280.758,67.913,175.095,69.4587,21507
-0.52718,-20.57307,-15.73428,-0.31526,-9.08701,-3.67387,-0.22122,-11.75425,-12.16884,-0.48502,3.08389,-0.25496,-12.494,25.502,8.517,280.758,67.913,175.095,69.4587,21541
-6.53046,-11.17082,-1.26129,0.28235,-9.08996,-3.66925,-6.80366,-2.37525,2.28912,-0.48502,3.08389,-0.25496,-12.494,25.502,8.517,280.758,67.913,175.095,69.4587,21575
-6.53046,-11.17082,-1.26129,0.28235,-9.08996,-3.66925,-6.80366,-2.37525,2.28912,-0.48502,3.08389,-0.25496,-12.968,22.383,-1.968,304.989,67.959,-175.6,71.3025,21610
-6.53046,-11.17082,-1.26129,0.28235,-9.08996,-3.66925,-6.80366,-2.37525,2.28912,3.1107,4.30174,2.5843,-12.968,22.383,-1.968,304.989,67.959,-175.6,71.3025,21646
-6.53046,-11.17082,-1.26129,0.28235,-9.08996,-3.66925,-6.80366,-2.37525,2.28912,3.1107,4.30174,2.5843,-12.968,22.383,-1.968,304.989,67.959,-175.6,71.3025,21681
1.40031,-15.95341,-0.41583,-1.30328,-9.67848,-0.89383,2.66965,-6.52702,0.45471,3.1107,4.30174,2.5843,-12.968,22.383,-1.968,304.989,67.959,-175.6,71.3025,21715
1.40031,-15.95341,-0.41583,-1.30328,-9.67848,-0.89383,2.66965,-6.52702,0.45471,3.1107,4.30174,2.5843,-7.361,18.796,-13.164,22.889,80.726,124.443,71.3025,21751
1.40031,-15.95341,-0.41583,-1.30328,-9.67848,-0.89383,2.66965,-6.52702,0.45471,3.33286,-0.90056,-0.66852,-7.361,18.796,-13.164,22.889,80.726,124.443,71.3025,21786
1.40031,-15.95341,-0.41583,-1.30328,-9.67848,-0.89383,2.66965,-6.52702,0.45471,3.33286,-0.90056,-0.66852,-7.361,18.796,-13.164,22.889,80.726,124.443,71.3025,21820
0.07274,-6.39876,-3.40814,-1.14052,-9.467,2.2903,1.17347,2.7379,-5.61852,3.33286,-0.90056,-0.66852,-7.361,18.796,-13.164,22.889,80.726,124.443,71.3025,21855
0.07274,-6.39876,-3.40814,-1.14052,-9.467,2.2903,1.17347,2.7379,-5.61852,3.33286,-0.90056,-0.66852,2.455,8.018,-26.376,155.234,74.876,26.472,71.3025,21890
0.07274,-6.39876,-3.40814,-1.14052,-9.467,2.2903,1.17347,2.7379,-5.61852,0.03358,-0.7122,-0.0434,2.455,8.018,-26.376,155.234,74.876,26.472,72.6431,21926
6.07642,-12.02884,0.87032,-1.14052,-9.467,2.2903,1.17347,2.7379,-5.61852,0.03358,-0.7122,-0.0434,2.455,8.018,-26.376,155.234,74.876,26.472,72.6431,21961
6.07642,-12.02884,0.87032,-1.01095,-9.33073,2.84357,7.05137,-3.03038,-1.87199,0.03358,-0.7122,-0.0434,3.497,7.101,-27.998,164.67,72.077,19.571,72.6431,21996
6.07642,-12.02884,0.87032,-1.01095,-9.33073,2.84357,7.05137,-3.03038,-1.87199,0.03358,-0.7122,-0.0434,3.497,7.101,-27.998,164.67,72.077,19.571,72.6431,22031
1.35733,-13.8645,-4.16508,-1.01095,-9.33073,2.84357,7.05137,-3.03038,-1.87199,-1.83318,-0.14227,-0.95683,3.497,7.101,-27.998,164.67,72.077,19.571,72.6431,22066
1.35733,-13.8645,-4.16508,-1.01095,-9.33073,2.84357,7.05137,-3.03038,-1.87199,-1.83318,-0.14227,-0.95683,3.497,7.101,-27.998,164.67,72.077,19.571,72.6431,22101
1.35733,-13.8645,-4.16508,-0.12354,-9.77696,0.75238,-2.40163,-9.98552,2.21795,-1.83318,-0.14227,-0.95683,8.432,21.686,-15.901,199.086,85.541,9.325,72.6431,22136
-4.02196,-15.82387,1.18347,-0.12354,-9.77696,0.75238,-2.40163,-9.98552,2.21795,-1.83318,-0.14227,-0.95683,8.432,21.686,-15.901,199.086,85.541,9.325,72.6431,22171
-4.02196,-15.82387,1.18347,-0.12354,-9.77696,0.75238,-2.40163,-9.98552,2.21795,-2.04291,0.40668,-1.10426,8.432,21.686,-15.901,199.086,85.541,9.325,72.6431,22223
-4.02196,-15.82387,1.18347,1.20993,-9.48629,-2.17181,1.08719,0.12405,5.50479,-2.04291,0.40668,-1.10426,8.432,21.686,-15.901,199.086,85.541,9.325,68.5792,22243
-4.02196,-15.82387,1.18347,1.20993,-9.48629,-2.17181,1.08719,0.12405,5.50479,-2.04291,0.40668,-1.10426,-4.105,31.509,1.785,330.953,75.315,-150.877,68.5792,22276
-1.74225,1.38657,4.79793,1.20993,-9.48629,-2.17181,1.08719,0.12405,5.50479,-1.91219,-2.82639,-0.50481,-4.105,31.509,1.785,330.953,75.315,-150.877,68.5792,22311
-1.74225,1.38657,4.79793,1.20993,-9.48629,-2.17181,1.08719,0.12405,5.50479,-1.91219,-2.82639,-0.50481,-4.105,31.509,1.785,330.953,75.315,-150.877,68.5792,22346
-1.74225,1.38657,4.79793,0.64026,-8.89155,-4.08666,-2.90734,11.07657,7.41723,-1.91219,-2.82639,-0.50481,-4.105,31.509,1.785,330.953,75.315,-150.877,68.5792,22381
-1.74225,1.38657,4.79793,0.64026,-8.89155,-4.08666,-2.90734,11.07657,7.41723,-1.91219,-2.82639,-0.50481,-7.065,31.444,3.033,325.556,65.051,-171.096,68.5792,22416
-0.32831,-14.52977,-13.70335,0.64026,-8.89155,-4.08666,-2.90734,11.07657,7.41723,0.17348,-1.78345,-0.00208,-7.065,31.444,3.033,325.556,65.051,-171.096,68.5792,22451
-0.32831,-14.52977,-13.70335,0.64026,-8.89155,-4.08666,-2.90734,11.07657,7.41723,0.17348,-1.78345,-0.00208,-7.065,31.444,3.033,325.556,65.051,-171.096,68.5792,22485
-0.32831,-14.52977,-13.70335,0.10303,-8.7471,-4.43262,-0.23052,0.44757,-1.16885,0.17348,-1.78345,-0.00208,-7.065,31.444,3.033,325.556,65.051,-171.096,68.5792,22520
-0.32831,-14.52977,-13.70335,0.10303,-8.7471,-4.43262,-0.23052,0.44757,-1.16885,0.17348,-1.78345,-0.00208,-9.25,30.295,11.086,292.204,63.12,-178.669,73.0365,22556
-3.66173,-12.62413,0.40623,0.10303,-8.7471,-4.43262,-0.23052,0.44757,-1.16885,0.6864,1.05054,0.34712,-9.25,30.295,11.086,292.204,63.12,-178.669,73.0365,22591
-3.66173,-12.62413,0.40623,0.10303,-8.7471,-4.43262,-0.23052,0.44757,-1.16885,0.6864,1.05054,0.34712,-9.25,30.295,11.086,292.204,63.12,-178.669,73.0365,22625
-3.66173,-12.62413,0.40623,0.25041,-9.16633,-3.4765,-4.14344,0.48392,7.93408,0.6864,1.05054,0.34712,-9.25,30.295,11.086,292.204,63.12,-178.669,73.0365,22661
-3.66173,-12.62413,0.40623,0.25041,-9.16633,-3.4765,-4.14344,0.48392,7.93408,0.6864,1.05054,0.34712,-0.748,26.585,-4.703,354.539,69.181,-175.88,73.0365,22695
-0.89995,-18.14729,-0.74965,0.25041,-9.16633,-3.4765,-4.14344,0.48392,7.93408,2.16103,1.36491,2.26605,-0.748,26.585,-4.703,354.539,69.181,-175.88,73.0365,22730
-0.89995,-18.14729,-0.74965,0.25041,-9.16633,-3.4765,-4.14344,0.48392,7.93408,2.16103,1.36491,2.26605,-0.748,26.585,-4.703,354.539,69.181,-175.88,73.0365,22765
-0.89995,-18.14729,-0.74965,-1.07937,-9.73878,-0.40191,4.02152,-2.80561,2.19519,2.16103,1.36491,2.26605,-1.688,17.78,-18.176,57.725,83.255,110.423,73.0365,22801
2.86104,-7.19598,-1.08241,-1.07937,-9.73878,-0.40191,4.02152,-2.80561,2.19519,2.16103,1.36491,2.26605,-1.688,17.78,-18.176,57.725,83.255,110.423,73.0365,22836
2.86104,-7.19598,-1.08241,-1.07937,-9.73878,-0.40191,4.02152,-2.80561,2.19519,3.09584,5.28563,-0.42641,-1.688,17.78,-18.176,57.725,83.255,110.423,73.0365,22871
2.86104,-7.19598,-1.08241,-1.07937,-9.73878,-0.40191,4.02152,-2.80561,2.19519,3.09584,5.28563,-0.42641,-1.688,17.78,-18.176,57.725,83.255,110.423,73.6355,22906
2.86104,-7.19598,-1.08241,-1.01203,-9.56859,1.89426,0.35255,3.2026,-8.72149,3.09584,5.28563,-0.42641,5.885,15.074,-20.193,166.09,77.35,28.114,73.6355,22940
4.64189,-10.39093,2.99747,-1.01203,-9.56859,1.89426,0.35255,3.2026,-8.72149,0.0051,0.24887,-0.41255,5.885,15.074,-20.193,166.09,77.35,28.114,73.6355,22976
4.64189,-10.39093,2.99747,-1.01203,-9.56859,1.89426,0.35255,3.2026,-8.72149,0.0051,0.24887,-0.41255,5.885,15.074,-20.193,166.09,77.35,28.114,73.6355,23011
4.64189,-10.39093,2.99747,-0.29349,-9.62189,1.87175,4.11294,-6.04952,-6.77807,0.0051,0.24887,-0.41255,5.885,15.074,-20.193,166.09,77.35,28.114,73.6355,23045
4.64189,-10.39093,2.99747,-0.29349,-9.62189,1.87175,4.11294,-6.04952,-6.77807,0.0051,0.24887,-0.41255,4.361,14.268,-18.97,183.536,78.861,8.911,73.6355,23081
-0.21628,-16.82365,-1.67107,-0.29349,-9.62189,1.87175,4.11294,-6.04952,-6.77807,-3.16058,0.89537,-0.77602,4.361,14.268,-18.97,183.536,78.861,8.911,73.6355,23116
-0.21628,-16.82365,-1.67107,-0.29349,-9.62189,1.87175,4.11294,-6.04952,-6.77807,-3.16058,0.89537,-0.77602,4.361,14.268,-18.97,183.536,78.861,8.911,73.6355,23151
-0.21628,-16.82365,-1.67107,0.47823,-9.76244,-0.79777,-6.81924,-8.74433,2.68089,-3.16058,0.89537,-0.77602,4.361,14.268,-18.97,183.536,78.861,-149.059,73.6355,23186
-0.22852,-13.0005,2.47235,0.47823,-9.76244,-0.79777,-6.81924,-8.74433,2.68089,-3.16058,0.89537,-0.77602,6.528,23.647,-8.81,5.803,84.557,-149.059,67.1181,23227
-0.22852,-13.0005,2.47235,0.47823,-9.76244,-0.79777,-6.81924,-8.74433,2.68089,-2.0309,-1.88301,-1.86519,6.528,23.647,-8.81,5.803,84.557,-149.059,67.1181,23256
-0.22852,-13.0005,2.47235,0.47823,-9.76244,-0.79777,-6.81924,-8.74433,2.68089,-2.0309,-1.88301,-1.86519,6.528,23.647,-8.81,5.803,84.557,-149.059,67.1181,23291
-0.22852,-13.0005,2.47235,1.44376,-8.91924,-3.81223,-0.29227,4.93203,7.57891,-2.0309,-1.88301,-1.86519,6.528,23.647,-8.81,5.803,84.557,-149.059,67.1181,23326
-2.42104,1.66365,3.32289,1.44376,-8.91924,-3.81223,-0.29227,4.93203,7.57891,-2.0309,-1.88301,-1.86519,-5.763,30.89,3.691,330.95,65.438,-159.257,67.1181,23361
-2.42104,1.66365,3.32289,1.44376,-8.91924,-3.81223,-0.29227,4.93203,7.57891,-0.0401,-2.366,-0.45796,-5.763,30.89,3.691,330.95,65.438,-159.257,67.1181,23396
-2.42104,1.66365,3.32289,1.44376,-8.91924,-3.81223,-0.29227,4.93203,7.57891,-0.0401,-2.366,-0.45796,-5.763,30.89,3.691,330.95,65.438,-159.257,67.1181,23430
-2.42104,1.66365,3.32289,0.39996,-8.61975,-4.65944,-2.32157,1.63841,-5.03933,-0.0401,-2.366,-0.45796,-5.763,30.89,3.691,330.95,65.438,-159.257,67.1181,23465
1.80826,-20.54568,-18.58644,0.39996,-8.61975,-4.65944,-2.32157,1.63841,-5.03933,-0.0401,-2.366,-0.45796,-9.131,32.126,2.531,323.926,61.518,-175.094,67.1181,23501
1.80826,-20.54568,-18.58644,0.39996,-8.61975,-4.65944,-2.32157,1.63841,-5.03933,-1.16428,-3.34602,-0.53514,-9.131,32.126,2.531,323.926,61.518,-175.094,67.1181,23535
1.80826,-20.54568,-18.58644,0.39996,-8.61975,-4.65944,-2.32157,1.63841,-5.03933,-1.16428,-3.34602,-0.53514,-9.131,32.126,2.531,323.926,61.518,-175.094,71.5725,23571
1.80826,-20.54568,-18.58644,0.06684,-8.33245,-5.1707,-0.37216,-0.52118,1.2861,-1.16428,-3.34602,-0.53514,-11.54,31.65,7.523,309.897,58.176,-179.259,71.5725,23605
-4.96704,-6.67357,4.82214,0.06684,-8.33245,-5.1707,-0.37216,-0.52118,1.2861,2.2722,1.09879,0.15614,-11.54,31.65,7.523,309.897,58.176,-179.259,71.5725,23640
-4.96704,-6.67357,4.82214,0.06684,-8.33245,-5.1707,-0.37216,-0.52118,1.2861,2.2722,1.09879,0.15614,-11.54,31.65,7.523,309.897,58.176,-179.259,71.5725,23675
-4.96704,-6.67357,4.82214,0.32078,-9.43751,-2.64593,-6.04876,-3.06662,8.02367,2.2722,1.09879,0.15614,-11.54,31.65,7.523,309.897,58.176,-179.259,71.5725,23710
-4.96704,-6.67357,4.82214,0.32078,-9.43751,-2.64593,-6.04876,-3.06662,8.02367,2.2722,1.09879,0.15614,7.66,28.699,-13.536,15.751,74.229,-173.087,71.5725,23745
0.84862,-15.49998,-0.28845,0.32078,-9.43751,-2.64593,-6.04876,-3.06662,8.02367,1.05963,-3.21205,0.74702,7.66,28.699,-13.536,15.751,74.229,-173.087,71.5725,23781
0.84862,-15.49998,-0.28845,0.32078,-9.43751,-2.64593,-6.04876,-3.06662,8.02367,1.05963,-3.21205,0.74702,7.66,28.699,-13.536,15.751,74.229,-173.087,71.5725,23816
0.84862,-15.49998,-0.28845,-0.79414,-9.77312,0.16072,5.10569,1.39336,0.47891,1.05963,-3.21205,0.74702,7.66,28.699,-13.536,15.751,74.229,-173.087,71.5725,23850
0.84862,-15.49998,-0.28845,-0.79414,-9.77312,0.16072,5.10569,1.39336,0.47891,1.05963,-3.21205,0.74702,5.234,18.442,-24.419,109.866,85.261,78.559,74.2149,23885
2.27823,-5.32399,-1.30882,-0.79414,-9.77312,0.16072,5.10569,1.39336,0.47891,1.55504,4.85335,-0.51762,5.234,18.442,-24.419,109.866,85.261,78.559,74.2149,23921
2.27823,-5.32399,-1.30882,-0.79414,-9.77312,0.16072,5.10569,1.39336,0.47891,1.55504,4.85335,-0.51762,5.234,18.442,-24.419,109.866,85.261,78.559,74.2149,23959
2.27823,-5.32399,-1.30882,-0.94683,-9.54041,2.06263,0.86468,2.27729,-4.82991,1.55504,4.85335,-0.51762,5.234,18.442,-24.419,109.866,85.261,78.559,74.2149,23990
5.25218,-12.65991,0.29631,-0.94683,-9.54041,2.06263,0.86468,2.27729,-4.82991,1.55504,4.85335,-0.51762,10.439,15.027,-29.707,172.795,76.619,24.657,74.2149,24026
5.25218,-12.65991,0.29631,-0.94683,-9.54041,2.06263,0.86468,2.27729,-4.82991,1.1761,0.52173,-0.49971,10.439,15.027,-29.707,172.795,76.619,24.657,74.2149,24061
5.25218,-12.65991,0.29631,-0.94683,-9.54041,2.06263,0.86468,2.27729,-4.82991,1.1761,0.52173,-0.49971,10.439,15.027,-29.707,172.795,76.619,24.657,74.2149,24096
5.25218,-12.65991,0.29631,-0.32645,-9.5002,2.41038,1.76206,-5.84483,-5.09474,1.1761,0.52173,-0.49971,10.439,15.027,-29.707,172.795,76.619,24.657,74.2149,24133
5.25218,-12.65991,0.29631,-0.32645,-9.5002,2.41038,1.76206,-5.84483,-5.09474,1.1761,0.52173,-0.49971,6.854,22.607,-21.027,195.004,75.639,7.713,74.2149,24165
-2.63751,-18.9572,2.71188,-0.32645,-9.5002,2.41038,1.76206,-5.84483,-5.09474,-3.08301,1.01408,-0.44615,6.854,22.607,-21.027,195.004,75.639,7.713,66.819,24200
-2.63751,-18.9572,2.71188,-0.32645,-9.5002,2.41038,1.76206,-5.84483,-5.09474,-3.08301,1.01408,-0.44615,6.854,22.607,-21.027,195.004,75.639,7.713,66.819,24235
-2.63751,-18.9572,2.71188,0.34928,-9.77065,-0.76342,-8.76659,-6.99944,2.11042,-3.08301,1.01408,-0.44615,6.854,22.607,-21.027,195.004,75.639,7.713,66.819,24270
-0.86198,-10.56471,2.38857,0.34928,-9.77065,-0.76342,-8.76659,-6.99944,2.11042,-2.09198,-1.30229,-1.4557,7.922,28.899,-5.473,26.699,85.089,-155.415,66.819,24306
-0.86198,-10.56471,2.38857,0.34928,-9.77065,-0.76342,-8.76659,-6.99944,2.11042,-2.09198,-1.30229,-1.4557,7.922,28.899,-5.473,26.699,85.089,-155.415,66.819,24341
-0.86198,-10.56471,2.38857,1.42814,-8.95143,-3.74201,-0.72009,5.57294,6.97301,-2.09198,-1.30229,-1.4557,7.922,28.899,-5.473,26.699,85.089,-155.415,66.819,24375
-0.86198,-10.56471,2.38857,1.42814,-8.95143,-3.74201,-0.72009,5.57294,6.97301,-2.09198,-1.30229,-1.4557,-1.753,31.105,6.674,5.93,65.894,-159.111,66.819,24411
-1.9348,3.10869,3.38091,1.42814,-8.95143,-3.74201,-0.72009,5.57294,6.97301,-0.19363,-2.4393,-0.21811,-1.753,31.105,6.674,5.93,65.894,-159.111,66.819,24446
-1.9348,3.10869,3.38091,1.42814,-8.95143,-3.74201,-0.72009,5.57294,6.97301,-0.19363,-2.4393,-0.21811,-1.753,31.105,6.674,5.93,65.894,-159.111,66.819,24481
-1.9348,3.10869,3.38091,0.43009,-8.54135,-4.79903,0.2895,-0.33432,-2.81111,-0.19363,-2.4393,-0.21811,-1.753,31.105,6.674,5.93,65.894,-159.111,70.907,24516
0.62361,-11.33305,-7.7749,0.43009,-8.54135,-4.79903,0.2895,-0.33432,-2.81111,-0.19363,-2.4393,-0.21811,-4.5,30.658,6.419,340.457,60.572,-174.879,70.907,24551
0.62361,-11.33305,-7.7749,0.43009,-8.54135,-4.79903,0.2895,-0.33432,-2.81111,-1.83176,-2.59549,-0.83405,-4.5,30.658,6.419,340.457,60.572,-174.879,70.907,24586
0.62361,-11.33305,-7.7749,0.43009,-8.54135,-4.79903,0.2895,-0.33432,-2.81111,-1.83176,-2.59549,-0.83405,-4.5,30.658,6.419,340.457,60.572,-174.879,70.907,24621
-1.66876,-6.85446,0.87546,0.25845,-8.13023,-5.4775,-1.92313,1.14747,6.26652,-1.83176,-2.59549,-0.83405,-4.5,30.658,6.419,340.457,60.572,-174.879,70.907,24655
-1.66876,-6.85446,0.87546,0.25845,-8.13023,-5.4775,-1.92313,1.14747,6.26652,-1.83176,-2.59549,-0.83405,-6.187,30.618,0.676,339.926,56.002,-177.299,70.907,24690
-1.66876,-6.85446,0.87546,0.25845,-8.13023,-5.4775,-1.92313,1.14747,6.26652,3.06978,1.96458,0.41859,-6.187,30.618,0.676,339.926,56.002,-177.299,70.907,24725
-4.16682,-13.4677,3.15068,0.25845,-8.13023,-5.4775,-1.92313,1.14747,6.26652,3.06978,1.96458,0.41859,-6.187,30.618,0.676,339.926,56.002,-177.299,70.907,24761
-4.16682,-13.4677,3.15068,0.1471,-9.54816,-2.2319,-4.31157,-4.07198,5.34695,3.06978,1.96458,0.41859,-6.187,30.618,0.676,339.926,56.002,-177.299,70.907,24796
-4.16682,-13.4677,3.15068,0.1471,-9.54816,-2.2319,-4.31157,-4.07198,5.34695,3.06978,1.96458,0.41859,9.082,24.719,-17.621,18.163,76.816,-176.229,74.7575,24831
-4.16682,-13.4677,3.15068,0.1471,-9.54816,-2.2319,-4.31157,-4.07198,5.34695,1.70796,-4.37065,0.23004,9.082,24.719,-17.621,18.163,76.816,-176.229,74.7575,24866
3.51788,-8.16298,-1.33694,0.1471,-9.54816,-2.2319,-4.31157,-4.07198,5.34695,1.70796,-4.37065,0.23004,9.082,24.719,-17.621,18.163,76.816,-176.229,74.7575,24901
3.51788,-8.16298,-1.33694,-0.62566,-9.7406,0.94847,4.13661,1.4697,-2.27491,1.70796,-4.37065,0.23004,9.082,24.719,-17.621,18.163,76.816,-176.229,74.7575,24936
3.51788,-8.16298,-1.33694,-0.62566,-9.7406,0.94847,4.13661,1.4697,-2.27491,0.89633,3.5182,-0.47243,15.07,14.812,-27.158,175.351,83.347,33.411,74.7575,24970
3.51788,-8.16298,-1.33694,-0.62566,-9.7406,0.94847,4.13661,1.4697,-2.27491,0.89633,3.5182,-0.47243,15.07,14.812,-27.158,175.351,83.347,33.411,74.7575,25005
0.44881,-8.00487,-1.47072,-0.71176,-9.47731,2.41753,1.14342,1.24404,-3.82998,0.89633,3.5182,-0.47243,15.07,14.812,-27.158,175.351,83.347,33.411,74.7575,25040
0.44881,-8.00487,-1.47072,-0.71176,-9.47731,2.41753,1.14342,1.24404,-3.82998,0.89633,3.5182,-0.47243,15.07,14.812,-27.158,175.351,83.347,33.411,74.7575,25076
0.44881,-8.00487,-1.47072,-0.71176,-9.47731,2.41753,1.14342,1.24404,-3.82998,0.4673,0.37735,-0.96703,11.084,13.484,-33.368,182.332,75.109,16.405,74.7575,25111
0.44881,-8.00487,-1.47072,-0.71176,-9.47731,2.41753,1.14342,1.24404,-3.82998,0.4673,0.37735,-0.96703,11.084,13.484,-33.368,182.332,75.109,16.405,74.7575,25146
-2.05081,-15.70537,-3.18785,0.1638,-9.58172,2.08187,-2.21293,-6.22237,-5.24827,0.4673,0.37735,-0.96703,11.084,13.484,-33.368,182.332,75.109,16.405,63.6436,25182
-2.05081,-15.70537,-3.18785,0.1638,-9.58172,2.08187,-2.21293,-6.22237,-5.24827,0.4673,0.37735,-0.96703,12.277,31.937,-19.247,231.313,77.705,-4.499,63.6436,25216
-2.05081,-15.70537,-3.18785,0.1638,-9.58172,2.08187,-2.21293,-6.22237,-5.24827,-2.84924,4.95964,-0.22992,12.277,31.937,-19.247,231.313,77.705,-4.499,63.6436,25252
-2.05081,-15.70537,-3.18785,0.1638,-9.58172,2.08187,-2.21293,-6.22237,-5.24827,-2.84924,4.95964,-0.22992,12.277,31.937,-19.247,231.313,77.705,-4.499,63.6436,25286
-3.34785,-14.13538,2.14404,0.63534,-9.74258,-0.92131,-3.99003,-4.28802,3.07526,-2.84924,4.95964,-0.22992,12.277,31.937,-19.247,231.313,77.705,-4.499,63.6436,25321
-3.34785,-14.13538,2.14404,0.63534,-9.74258,-0.92131,-3.99003,-4.28802,3.07526,-2.84924,4.95964,-0.22992,4.048,41.484,2.313,39.884,83.447,-145.41,63.6436,25356
-3.34785,-14.13538,2.14404,0.63534,-9.74258,-0.92131,-3.99003,-4.28802,3.07526,-2.54626,-2.5849,-1.82834,4.048,41.484,2.313,39.884,83.447,-145.41,63.6436,25391
-1.16031,-1.07637,3.70596,0.63534,-9.74258,-0.92131,-3.99003,-4.28802,3.07526,-2.54626,-2.5849,-1.82834,4.048,41.484,2.313,39.884,83.447,-145.41,63.6436,25426
-1.16031,-1.07637,3.70596,1.61977,-8.82969,-3.94756,-2.76375,7.66433,7.61374,-2.54626,-2.5849,-1.82834,4.048,41.484,2.313,39.884,83.447,-145.41,63.6436,25461
-2.25494,2.3013,1.15288,1.61977,-8.82969,-3.94756,-2.76375,7.66433,7.61374,-2.54626,-2.5849,-1.82834,-4.973,39.223,16.299,36.843,64.208,-157.691,70.9053,25496
-2.25494,2.3013,1.15288,1.61977,-8.82969,-3.94756,-2.76375,7.66433,7.61374,0.25554,-1.90297,-0.03709,-4.973,39.223,16.299,36.843,64.208,-157.691,70.9053,25531
-2.25494,2.3013,1.15288,1.61977,-8.82969,-3.94756,-2.76375,7.66433,7.61374,0.25554,-1.90297,-0.03709,-4.973,39.223,16.299,36.843,64.208,-157.691,70.9053,25570
-2.25494,2.3013,1.15288,0.64372,-8.38562,-5.04356,1.22431,-4.34945,-6.7163,0.25554,-1.90297,-0.03709,-4.973,39.223,16.299,36.843,64.208,-157.691,70.9053,25601
1.37161,-8.84785,-6.83845,0.64372,-8.38562,-5.04356,1.22431,-4.34945,-6.7163,-1.05188,-0.09177,-0.39993,-6.152,35.703,28.322,202.768,58.77,-172.727,70.9053,25643
1.37161,-8.84785,-6.83845,0.64372,-8.38562,-5.04356,1.22431,-4.34945,-6.7163,-1.05188,-0.09177,-0.39993,-6.152,35.703,28.322,202.768,58.77,-172.727,70.9053,25670
1.37161,-8.84785,-6.83845,0.68059,-8.01959,-5.60297,-5.4291,-2.75668,5.8677,-1.05188,-0.09177,-0.39993,-6.152,35.703,28.322,202.768,58.77,-172.727,70.9053,25706
1.37161,-8.84785,-6.83845,0.68059,-8.01959,-5.60297,-5.4291,-2.75668,5.8677,-1.05188,-0.09177,-0.39993,-6.152,35.703,28.322,202.768,58.77,-172.727,70.9053,25741
-2.89679,-8.52657,4.32217,0.68059,-8.01959,-5.60297,-5.4291,-2.75668,5.8677,3.9144,3.93338,1.04677,-10.295,33.414,15.321,305.682,54.862,-173.074,70.9053,25776
-2.89679,-8.52657,4.32217,0.68059,-8.01959,-5.60297,-5.4291,-2.75668,5.8677,3.9144,3.93338,1.04677,-10.295,33.414,15.321,305.682,54.862,-173.074,72.3241,25810
-2.89679,-8.52657,4.32217,0.11751,-9.63134,-1.84222,-3.72179,-5.01943,3.91686,3.9144,3.93338,1.04677,-10.295,33.414,15.321,305.682,54.862,-173.074,72.3241,25846
-2.89679,-8.52657,4.32217,0.11751,-9.63134,-1.84222,-3.72179,-5.01943,3.91686,3.9144,3.93338,1.04677,-10.295,33.414,15.321,305.682,54.862,-173.074,72.3241,25881
3.743,-13.81239,0.2381,0.11751,-9.63134,-1.84222,-3.72179,-5.01943,3.91686,2.29297,-1.75249,0.41045,0.905,32.935,-2.655,5.005,79.15,-176.35,72.3241,25915
3.743,-13.81239,0.2381,0.11751,-9.63134,-1.84222,-3.72179,-5.01943,3.91686,2.29297,-1.75249,0.41045,0.905,32.935,-2.655,5.005,79.15,-176.35,72.3241,25951
3.743,-13.81239,0.2381,-0.78472,-9.69796,1.22642,4.0461,2.4656,-2.60885,2.29297,-1.75249,0.41045,0.905,32.935,-2.655,5.005,79.15,-176.35,72.3241,25986
3.743,-13.81239,0.2381,-0.78472,-9.69796,1.22642,4.0461,2.4656,-2.60885,2.29297,-1.75249,0.41045,1.947,25.516,-12.801,146.481,81.462,32.613,72.3241,26021
-0.14429,-5.1357,-2.40005,-0.78472,-9.69796,1.22642,4.0461,2.4656,-2.60885,1.32413,2.29323,-0.38629,1.947,25.516,-12.801,146.481,81.462,32.613,72.3241,26055
-0.14429,-5.1357,-2.40005,-0.78472,-9.69796,1.22642,4.0461,2.4656,-2.60885,1.32413,2.29323,-0.38629,1.947,25.516,-12.801,146.481,81.462,32.613,72.3241,26091
-0.14429,-5.1357,-2.40005,-0.80221,-9.38123,2.74214,0.54905,1.15341,-3.60434,1.32413,2.29323,-0.38629,1.947,25.516,-12.801,146.481,81.462,32.613,72.3241,26126
-0.14429,-5.1357,-2.40005,-0.80221,-9.38123,2.74214,0.54905,1.15341,-3.60434,1.32413,2.29323,-0.38629,-1.555,19.893,-13.853,137.966,73.062,16.307,70.4165,26160
