loggingTime,loggingSample,identifierForVendor,deviceID,locationTimestamp_since1970,locationLatitude,locationLongitude,locationAltitude,locationSpeed,locationCourse,locationVerticalAccuracy,locationHorizontalAccuracy,locationFloor,locationHeadingTimestamp_since1970,locationHeadingX,locationHeadingY,locationHeadingZ,locationTrueHeading,locationMagneticHeading,locationHeadingAccuracy,accelerometerTimestamp_sinceReboot,accelerometerAccelerationX,accelerometerAccelerationY,accelerometerAccelerationZ,gyroTimestamp_sinceReboot,gyroRotationX,gyroRotationY,gyroRotationZ,motionTimestamp_sinceReboot,motionYaw,motionRoll,motionPitch,motionRotationRateX,motionRotationRateY,motionRotationRateZ,motionUserAccelerationX,motionUserAccelerationY,motionUserAccelerationZ,motionAttitudeReferenceFrame,motionQuaternionX,motionQuaternionY,motionQuaternionZ,motionQuaternionW,motionGravityX,motionGravityY,motionGravityZ,motionMagneticFieldX,motionMagneticFieldY,motionMagneticFieldZ,motionMagneticFieldCalibrationAccuracy,IP_en0,IP_pdp_ip0,deviceOrientation,batteryState,batteryLevel,state
2015-10-05 21:20:51.071,1,7046C08F-1AFD-4AA7-9EF7-651803F23386,my_iOS_device_1,1444105248.10902,37.87145478548706,-122.2584692951743,87.9624,-1,-1,10,65,-9999,1444105251.007323,17.88278198242188,-14.91757202148438,-31.707763671875,243.8136901855469,230.1024932861328,10,432176.9101462917,-0.0023345947265625,-0.001007080078125,-0.9600982666015625,432176.8950707917,-0.01281246800437122,0.005055745013406426,-0.01915132403097782,432176.8472970417,-0.1384440919176238,0.002698923758869791,0.003834423672093647,0.00769366230815649,0.09205858409404755,0.007063510362058878,-0.02027702517807484,0.007710146717727184,0.04616210237145424,XArbitraryZVertical,0.002005955142333371,0.001213620022515122,-0.06916400631684831,0.9976025478619268,0.002698900643736124,-0.003834414295852184,-0.9999890327453613,0,0,0,-1,10.142.150.220,100.92.133.249,1,1,0.6,0
2015-10-05 21:20:51.107,2,7046C08F-1AFD-4AA7-9EF7-651803F23386,my_iOS_device_1,1444105248.10902,37.87145478548706,-122.2584692951743,87.9624,-1,-1,10,65,-9999,1444105251.059623,18.03515625,-15.03610229492188,-31.85647583007812,243.6312255859375,229.9200286865234,10,432176.9592450834,0.0028839111328125,-0.0008392333984375,-0.9788360595703125,432176.9428445417,-0.0008412925883560313,-0.004599012886457836,-0.03439419284615534,432176.9428445417,-0.1378198407426234,0.008972238006870822,0.003206612669726847,-0.003259143326431513,-0.006375493481755257,-0.002142196055501699,-0.01440420001745224,0.006410952657461166,0.005493549164384604,XArbitraryZVertical,0.001908376415923411,0.004365055978294673,-0.06884743908408472,0.9976158251137168,0.00897207111120224,-0.00320660718716681,-0.9999545812606812,0,0,0,-1,10.142.150.220,100.92.133.249,1,1,0.6,0
2015-10-05 21:20:51.121,3,7046C08F-1AFD-4AA7-9EF7-651803F23386,my_iOS_device_1,1444105248.10902,37.87145478548706,-122.2584692951743,87.9624,-1,-1,10,65,-9999,1444105251.111677,18.30612182617188,-15.2054443359375,-31.45988464355469,243.7155456542969,230.0043487548828,10,432177.008337625,0.011871337890625,-0.0003662109375,-0.976806640625,432176.9906182917,0.00136220689757553,0.008570318703983996,-0.02849236155443075,432176.9428445417,-0.1378198407426234,0.008972238006870822,0.003206612669726847,-0.003259143326431513,-0.006375493481755257,-0.002142196055501699,-0.01440420001745224,0.006410952657461166,0.005493549164384604,XArbitraryZVertical,0.001908376415923411,0.004365055978294673,-0.06884743908408472,0.9976158251137168,0.00897207111120224,-0.00320660718716681,-0.9999545812606812,0,0,0,-1,10.142.150.220,100.92.133.249,1,1,0.6,0
2015-10-05 21:20:51.181,4,7046C08F-1AFD-4AA7-9EF7-651803F23386,my_iOS_device_1,1444105248.10902,37.87145478548706,-122.2584692951743,87.9624,-1,-1,10,65,-9999,1444105251.162679,18.20449829101562,-15.17156982421875,-31.55905151367188,243.6123199462891,229.901123046875,10,432177.05753475,0.001220703125,-0.0010223388671875,-0.9878692626953125,432177.0383920834,-0.001011468582012095,0.00858150398056233,-0.02614718189850697,432177.0383920834,-0.137753762471077,0.009147755454711368,0.002992459481852065,-0.003432665020227432,0.006801192183047533,0.006104293745011091,-0.009742680005729198,0.007005516439676285,0.01356452237814665,XArbitraryZVertical,0.001807449851311661,0.004460038644662977,-0.06881481096505532,0.9976178441528419,0.009147587232291698,-0.002992454916238785,-0.9999536871910095,0,0,0,-1,10.142.150.220,100.92.133.249,1,1,0.6,0
2015-10-05 21:20:51.220,5,7046C08F-1AFD-4AA7-9EF7-651803F23386,my_iOS_device_1,1444105248.10902,37.87145478548706,-122.2584692951743,87.9624,-1,-1,10,65,-9999,1444105251.21492,18.33999633789062,-14.86669921875,-31.5260009765625,244.206298828125,230.4951019287109,10,432177.1065156667,0.010040283203125,-0.00506591796875,-0.9814910888671875,432177.0861660417,0.001433046982571638,0.007409180468709448,-0.03560433324548735,432177.0383920834,-0.137753762471077,0.009147755454711368,0.002992459481852065,-0.003432665020227432,0.006801192183047533,0.006104293745011091,-0.009742680005729198,0.007005516439676285,0.01356452237814665,XArbitraryZVertical,0.001807449851311661,0.004460038644662977,-0.06881481096505532,0.9976178441528419,0.009147587232291698,-0.002992454916238785,-0.9999536871910095,0,0,0,-1,10.142.150.220,100.92.133.249,1,1,0.6,0
2015-10-05 21:20:51.279,6,7046C08F-1AFD-4AA7-9EF7-651803F23386,my_iOS_device_1,1444105248.10902,37.87145478548706,-122.2584692951743,87.9624,-1,-1,10,65,-9999,1444105251.267086,18.33999633789062,-15.03607177734375,-31.658203125,244.2028350830078,230.4916381835938,10,432177.1557333751,0.003173828125,-0.001556396484375,-0.9864044189453125,432177.1339396667,0.003712446559570458,0.006127134719945303,-0.02608193445180003,432177.1339396667,-0.1378817698740964,0.008919751229621213,0.002713584303793026,0.001287125633098185,0.004336662124842405,0.0061692139133811,0.0001441205968149006,-0.000414470792748034,0.01140062976628542,XArbitraryZVertical,0.001660778210494031,0.004355799001380445,-0.06887950179317608,0.9976140952610464,0.008919600397348404,-0.002713581081479788,-0.9999565482139587,0,0,0,-1,10.142.150.220,100.92.133.249,1,1,0.6,0
2015-10-05 21:20:51.318,7,7046C08F-1AFD-4AA7-9EF7-651803F23386,my_iOS_device_1,1444105248.10902,37.87145478548706,-122.2584692951743,87.9624,-1,-1,10,65,-9999,1444105251.267086,18.33999633789062,-15.03607177734375,-31.658203125,244.2028350830078,230.4916381835938,10,432177.204812875,0.007232666015625,-0.010009765625,-0.9857025146484375,432177.181713625,0.0002537992518845514,0.005003014423822857,-0.03323545145586187,432177.181713625,-0.1379892481681931,0.008685638260504802,0.002674355965553178,-0.002172398846596479,0.003208281705155969,-0.0009845254244282842,0.0003934814885724336,-0.002132165711373091,0.01504964660853148,XArbitraryZVertical,0.001633375912625694,0.004240285250543317,-0.06893339338340243,0.9976109158087477,0.00868549756705761,-0.002674352843314409,-0.9999586939811707,0,0,0,-1,10.142.150.220,100.92.133.249,1,1,0.6,0
2015-10-05 21:20:51.376,8,7046C08F-1AFD-4AA7-9EF7-651803F23386,my_iOS_device_1,1444105248.10902,37.87145478548706,-122.2584692951743,87.9624,-1,-1,10,65,-9999,1444105251.373016,18.57705688476562,-15.10385131835938,-31.36079406738281,244.1909484863281,230.4797515869141,10,432177.2537923334,0.0053863525390625,-0.003509521484375,-0.98443603515625,432177.2294872917,0.001462874386780526,-0.002239185844538623,-0.03081836645050595,432177.2294872917,-0.1380330132321479,0.008205855654193992,0.00270162843403239,-0.0009601538768038154,-0.004037377890199423,0.001432291232049465,-0.003139815758913755,0.00181661534588784,0.01822745427489281,XArbitraryZVertical,0.001630530533681505,0.003999991122157948,-0.06895555641154663,0.9976103812015855,0.008205733262002468,-0.002701625227928162,-0.9999626874923706,0,0,0,-1,10.142.150.220,100.92.133.249,1,1,0.6,0
2015-10-05 21:20:51.415,9,7046C08F-1AFD-4AA7-9EF7-651803F23386,my_iOS_device_1,1444105248.10902,37.87145478548706,-122.2584692951743,87.9624,-1,-1,10,65,-9999,1444105251.373016,18.57705688476562,-15.10385131835938,-31.36079406738281,244.1909484863281,230.4797515869141,10,432177.30288175,0.0070648193359375,-0.0023651123046875,-0.9836883544921875,432177.2772610834,0.0001861549601965387,0.0001235706745796767,-0.0213521603558193,432177.2772610834,-0.1381282672029755,0.007914296034227561,0.002403423052108865,-0.002239749999716878,-0.001678470405749977,0.01089824922382832,-0.0001169493480119854,-0.000938254059292376,0.01650632172822952,XArbitraryZVertical,0.001471915872348294,0.003864772571512781,-0.0690039082461372,0.9976078175532664,0.007914190180599689,-0.002403420628979802,-0.9999657869338989,0,0,0,-1,10.142.150.220,100.92.133.249,1,1,0.6,0
2015-10-05 21:20:51.475,10,7046C08F-1AFD-4AA7-9EF7-651803F23386,my_iOS_device_1,1444105248.10902,37.87145478548706,-122.2584692951743,87.9624,-1,-1,10,65,-9999,1444105251.373016,18.57705688476562,-15.10385131835938,-31.36079406738281,244.1909484863281,230.4797515869141,10,432177.351988,0.00408935546875,0.001312255859375,-0.9895477294921875,432177.3250349584,0.002637861059723485,0.00499875336607873,-0.03676706937741595,432177.3250349584,-0.1381670079439136,0.007746218790430731,0.002459889419092395,0.0002153081150026992,0.003194641321897507,-0.004516927525401115,0.0002800051588565111,0.001498583238571882,0.01458489242941141,XArbitraryZVertical,0.001494355708802593,0.003778957559084138,-0.06902324426800947,0.9976067753035252,0.007746117655187845,-0.002459886949509382,-0.9999669790267944,0,0,0,-1,10.142.150.220,100.92.133.249,1,1,0.6,0
2015-10-05 21:20:51.514,11,7046C08F-1AFD-4AA7-9EF7-651803F23386,my_iOS_device_1,1444105248.10902,37.87145478548706,-122.2584692951743,87.9624,-1,-1,10,65,-9999,1444105251.499487,18.42465209960938,-15.15463256835938,-31.57560729980469,244.1934661865234,230.4822692871094,10,432177.401088375,0.0068511962890625,-0.0052337646484375,-0.9815216064453125,432177.3728088334,0.005016330229273253,0.0001568601882056671,-0.03553242789605521,432177.3728088334,-0.1381655981416431,0.007822062741334896,0.002152695279345759,0.002798708621412516,-0.00164524745196104,-0.003136577783152461,0.001134944381192327,0.002366316737607121,0.01777409762144089,XArbitraryZVertical,0.001343741137066261,0.003827392911686726,-0.06902309584965156,0.9976068151644633,0.007821965031325817,-0.002152693690732121,-0.999967098236084,0,0,0,-1,10.142.150.220,100.92.133.249,1,1,0.6,0
2015-10-05 21:20:51.573,12,7046C08F-1AFD-4AA7-9EF7-651803F23386,my_iOS_device_1,1444105248.10902,37.87145478548706,-122.2584692951743,87.9624,-1,-1,10,65,-9999,1444105251.551663,18.11984252929688,-15.42559814453125,-31.57560729980469,244.1688690185547,230.4576721191406,10,432177.4501686667,0.0053558349609375,-0.0018463134765625,-0.98565673828125,432177.4205826667,0.007265902402063186,0.008522648120471578,-0.03079626221345829,432177.4205826667,-0.1383549707787743,0.007712813271308789,0.002129160800671629,0.005049529485404491,0.006720732431858778,0.001599311595782638,-0.0001901363139040768,0.001656136708334088,0.01385348755866289,XArbitraryZVertical,0.001328589005659358,0.003773585425136825,-0.06911767471625117,0.9976004921541033,0.00771271949633956,-0.002129159169271588,-0.9999679923057556,0,0,0,-1,10.142.150.220,100.92.133.249,1,1,0.6,0
2015-10-05 21:20:51.612,13,7046C08F-1AFD-4AA7-9EF7-651803F23386,my_iOS_device_1,1444105248.10902,37.87145478548706,-122.2584692951743,87.9624,-1,-1,10,65,-9999,1444105251.60312,18.05209350585938,-15.45947265625,-31.60867309570312,244.1403045654297,230.4291076660156,10,432177.4993930834,0.006988525390625,0.002410888671875,-0.98486328125,432177.46835675,0.0001755023158362218,0.008576177658382171,-0.02731950541035985,432177.46835675,-0.1382919461285195,0.007592959519587449,0.002294461569457267,-0.002040062798187137,0.006771586369723082,0.005075792316347361,-0.001229951507411897,-0.00171860191039741,0.01748563162982464,XArbitraryZVertical,0.001406782177649558,0.003708133382241837,-0.06908599811304023,0.9976028245626847,0.007592866662889719,-0.00229445961304009,-0.9999685287475586,0,0,0,-1,10.142.150.220,100.92.133.249,1,1,0.6,0
2015-10-05 21:20:51.671,14,7046C08F-1AFD-4AA7-9EF7-651803F23386,my_iOS_device_1,1444105248.10902,37.87145478548706,-122.2584692951743,87.9624,-1,-1,10,65,-9999,1444105251.654944,18.22149658203125,-15.49331665039062,-31.34426879882812,244.1074371337891,230.396240234375,10,432177.548479625,0.00341796875,-0.0022735595703125,-0.9827423095703125,432177.5161304167,-0.004473045366897088,0.005038168150211903,-0.03091770235916591,432177.5161304167,-0.1381488804965684,0.007705287564478137,0.002031323093790081,-0.006691211368888617,0.003231882583349943,0.001477299141697586,-0.001418574363924563,0.002305979840457439,0.01409788988530636,XArbitraryZVertical,0.001279138661101949,0.003773344983195553,-0.06901507299203881,0.9976076610430699,0.007705195341259241,-0.002031321637332439,-0.9999682307243347,0,0,0,-1,10.142.150.220,100.92.133.249,1,1,0.6,0
2015-10-05 21:20:51.710,15,7046C08F-1AFD-4AA7-9EF7-651803F23386,my_iOS_device_1,1444105248.10902,37.87145478548706,-122.2584692951743,87.9624,-1,-1,10,65,-9999,1444105251.654944,18.22149658203125,-15.49331665039062,-31.34426879882812,244.1074371337891,230.396240234375,10,432177.5974669167,0.008514404296875,-0.002166748046875,-0.980987548828125,432177.5639045417,0.0001786981091443169,0.002535595673864443,-0.0225487186335919,432177.5639045417,-0.1381930008439144,0.007539771717206406,0.00226308521356841,-0.002036212012171745,0.0007266642642207444,0.009846004657447338,-0.002122810808941722,-0.002680764300748706,0.01576186157763004,XArbitraryZVertical,0.001389112154010491,0.003682755926486628,-0.06903674159878689,0.9976063532203622,0.007539681158959866,-0.002263083355501294,-0.9999690055847168,0,0,0,-1,10.142.150.220,100.92.133.249,1,1,0.6,0
2015-10-05 21:20:51.771,16,7046C08F-1AFD-4AA7-9EF7-651803F23386,my_iOS_device_1,1444105248.10902,37.87145478548706,-122.2584692951743,87.9624,-1,-1,10,65,-9999,1444105251.758723,18.45858764648438,-15.0869140625,-31.70780944824219,244.0928497314453,230.3816528320312,10,432177.6465573334,0.007110595703125,-0.0040283203125,-0.98419189453125,432177.61167825,0.005019259706472341,-0.005883721796312061,-0.03076190743539627,432177.61167825,-0.138306306710868,0.00739728309894869,0.002076286710711776,0.002801872789859772,-0.007689964957535267,0.001632442465052009,6.434816168621182e-05,0.003754751989617944,0.01606850698590279,XArbitraryZVertical,0.001291222988379857,0.003618057749385828,-0.06909370924508457,0.9976027775342601,0.007397199515253305,-0.002076285192742944,-0.9999704957008362,0,0,0,-1,10.142.150.220,100.92.133.249,1,1,0.6,0
2015-10-05 21:20:51.808,17,7046C08F-1AFD-4AA7-9EF7-651803F23386,my_iOS_device_1,1444105248.10902,37.87145478548706,-122.2584692951743,87.9624,-1,-1,10,65,-9999,1444105251.758723,18.45858764648438,-15.0869140625,-31.70780944824219,244.0928497314453,230.3816528320312,10,432177.695644,0.005584716796875,-0.001861572265625,-0.98394775390625,432177.6594522084,0.002664492670624278,0.001390702721239378,-0.03675162304309348,432177.6594522084,-0.138394774300651,0.007503017781291875,0.002142765511403803,0.0004464224330149591,-0.0004122774989809841,-0.004357610363513231,-4.138230724493042e-05,0.003821230726316571,0.01924140751361847,XArbitraryZVertical,0.001328197750808,0.003668442711553459,-0.06913764174230801,0.9975995012594572,0.007502930238842964,-0.002142763929441571,-0.9999695420265198,0,0,0,-1,10.142.150.220,100.92.133.249,1,1,0.6,0
2015-10-05 21:20:51.870,18,7046C08F-1AFD-4AA7-9EF7-651803F23386,my_iOS_device_1,1444105248.10902,37.87145478548706,-122.2584692951743,87.9624,-1,-1,10,65,-9999,1444105251.862796,18.37393188476562,-15.1376953125,-31.88955688476562,244.0784759521484,230.3672790527344,10,432177.744722625,0.0075531005859375,-0.00286865234375,-0.9819793701171875,432177.7072260834,0.0003813646680993469,-0.009415073401757131,-0.03554601001761461,432177.7072260834,-0.1383129007614381,0.007252273584846486,0.002169225252722583,-0.001836145762354136,-0.01122095715254545,-0.003152285236865282,-0.003376460634171963,0.0008417089120484889,0.01698489859700203,XArbitraryZVertical,0.001332582902457416,0.003542511307886079,-0.06909692029650343,0.9976027718696345,0.007252193056046963,-0.002169223502278328,-0.999971330165863,0,0,0,-1,10.142.150.220,100.92.133.249,1,1,0.6,0
2015-10-05 21:20:51.907,19,7046C08F-1AFD-4AA7-9EF7-651803F23386,my_iOS_device_1,1444105248.10902,37.87145478548706,-122.2584692951743,87.9624,-1,-1,10,65,-9999,1444105251.862796,18.37393188476562,-15.1376953125,-31.88955688476562,244.0784759521484,230.3672790527344,10,432177.7938269583,0.00677490234375,1.52587890625e-05,-0.986114501953125,432177.7550000834,0.0003842941452984341,-0.006995857867529151,-0.03792900656101752,432177.7550000834,-0.1386339473365199,0.006962028172343245,0.002234987391425207,-0.001830224995501339,-0.008801726624369621,-0.005535577889531851,0.000148641163832508,-0.002998779062181711,0.01771923899650574,XArbitraryZVertical,0.001355902634615595,0.003395246610375264,-0.06925713393163277,0.9975921427257101,0.00696195475757122,-0.002234985586255789,-0.9999732971191406,0,0,0,-1,10.142.150.220,100.92.133.249,1,1,0.6,0
2015-10-05 21:20:51.971,20,7046C08F-1AFD-4AA7-9EF7-651803F23386,my_iOS_device_1,1444105248.10902,37.87145478548706,-122.2584692951743,87.9624,-1,-1,10,65,-9999,1444105251.914496,18.56021118164062,-15.2562255859375,-31.64167785644531,244.0752716064453,230.3640747070312,10,432177.8429125417,0.007537841796875,-0.0023956298828125,-0.9795379638671875,432177.802774,0.003838147763022198,-0.00104023072178495,-0.03435477806202217,432177.802774,-0.138816395795604,0.006762198122108,0.002286655871475517,0.001624085824005306,-0.002846936695277691,-0.001961617032065988,1.277343653782737e-05,0.002301912754774094,0.01386001985520124,XArbitraryZVertical,0.001375055296178551,0.003293657320176327,-0.06934818421489237,0.997586131815436,0.006762128788977861,-0.002286653965711594,-0.9999745488166809,0,0,0,-1,10.142.150.220,100.92.133.249,1,1,0.6,0
2015-10-05 21:20:52.005,21,7046C08F-1AFD-4AA7-9EF7-651803F23386,my_iOS_device_1,1444105248.10902,37.87145478548706,-122.2584692951743,87.9624,-1,-1,10,65,-9999,1444105251.966046,18.61099243164062,-15.002197265625,-31.65817260742188,244.0814819335938,230.3702850341797,10,432177.8920160834,0.009033203125,-0.0033721923828125,-0.9829559326171875,432177.850548,0.004985171244519326,0.00859561873433975,-0.03912742905155318,432177.850548,-0.1386726474488871,0.006743649286664103,0.002174462519799997,0.002771242754533887,0.006790258921682835,-0.006734583061188459,0.000794259540271014,-0.0002211690734839067,0.02043693326413631,XArbitraryZVertical,0.00131821454542953,0.003288390673238851,-0.06927668913253043,0.9975911933953832,0.006743582431226969,-0.002174460794776678,-0.9999749064445496,0,0,0,-1,10.142.150.220,100.92.133.249,1,1,0.6,0
2015-10-05 21:20:52.075,22,7046C08F-1AFD-4AA7-9EF7-651803F23386,my_iOS_device_1,1444105248.10902,37.87145478548706,-122.2584692951743,87.9624,-1,-1,10,65,-9999,1444105252.017735,18.42471313476562,-15.08688354492188,-31.60861206054688,244.0786743164062,230.3674774169922,10,432177.9411099167,-0.0031585693359375,-0.001617431640625,-0.9888916015625,432177.898322125,0.003727093945565894,0.009762615924012471,-0.03084233490031666,432177.898322125,-0.138736544505441,0.006876504159983619,0.002018673004689834,0.001510212430730462,0.007960246875882149,0.001550175831653178,0.002156767062842846,-0.001353520783595741,0.01701838709414005,XArbitraryZVertical,0.001245216693022515,0.003360015165477113,-0.06930874577888342,0.9975888218559944,0.006876436062157154,-0.002018671715632081,-0.9999743103981018,0,0,0,-1,10.142.150.220,100.92.133.249,1,1,0.6,0
2015-10-05 21:20:52.102,23,7046C08F-1AFD-4AA7-9EF7-651803F23386,my_iOS_device_1,1444105248.10902,37.87145478548706,-122.2584692951743,87.9624,-1,-1,10,65,-9999,1444105252.069861,18.10293579101562,-15.00222778320312,-31.62515258789062,244.0699462890625,230.3587493896484,10,432177.9902148333,0.0094757080078125,-0.001708984375,-0.982452392578125,432177.9460959584,0.007382548857808657,-0.005901564975615592,-0.03192091514179875,432177.9460959584,-0.1386295385276457,0.006345932496220511,0.002090946182075479,0.005168897565454245,-0.007712787948548794,0.0004713009402621537,-0.00950444582849741,0.0004735130059998482,0.01108607742935419,XArbitraryZVertical,0.001262714012892748,0.003092931606853919,-0.06925558259376274,0.9975933558354291,0.006345876026898623,-0.002090944675728679,-0.999977707862854,0,0,0,-1,10.142.150.220,100.92.133.249,1,1,0.6,0
2015-10-05 21:20:52.187,24,7046C08F-1AFD-4AA7-9EF7-651803F23386,my_iOS_device_1,1444105248.10902,37.87145478548706,-122.2584692951743,87.9624,-1,-1,10,65,-9999,1444105252.173217,18.00131225585938,-15.06997680664062,-31.658203125,244.0404815673828,230.3292846679688,10,432178.0393185417,0.0002593994140625,-0.00244140625,-0.986419677734375,432178.0416439584,0.001342765821617952,0.009766610665647591,-0.0273109832948716,432177.993870125,-0.1386496234699808,0.006533753293962725,0.002092173583806415,-0.003151609096676111,-0.0004298154672142118,0.003903002245351672,0.002942015416920185,0.0003831876965705305,0.01752407476305962,XArbitraryZVertical,0.001269862051143136,0.003186560724322356,-0.06926547995793643,0.9975923649303432,0.006533692590892315,-0.002092172158882022,-0.9999764561653137,0,0,0,-1,10.142.150.220,100.92.133.249,1,1,0.6,0
2015-10-05 21:20:52.201,25,7046C08F-1AFD-4AA7-9EF7-651803F23386,my_iOS_device_1,1444105248.10902,37.87145478548706,-122.2584692951743,87.9624,-1,-1,10,65,-9999,1444105252.173217,18.00131225585938,-15.06997680664062,-31.658203125,244.0404815673828,230.3292846679688,10,432178.0884405,0.0155487060546875,0.000274658203125,-0.981414794921875,432178.0416439584,0.001342765821617952,0.009766610665647591,-0.0273109832948716,432178.0416439584,-0.1386321900092217,0.006722082406586526,0.002184667691271436,-0.0008689588867127895,0.007959971204400063,0.005080623086541891,-0.006462616380304098,-0.0002567402843851596,0.01355534326285124,XArbitraryZVertical,0.001322491501059843,0.003277306433647943,-0.06925650584183221,0.9975926256129537,0.006722015794366598,-0.002184665994718671,-0.9999750256538391,0,0,0,-1,10.142.150.220,100.92.133.249,1,1,0.6,0
2015-10-05 21:20:52.266,26,7046C08F-1AFD-4AA7-9EF7-651803F23386,my_iOS_device_1,1444105248.10902,37.87145478548706,-122.2584692951743,87.9624,-1,-1,10,65,-9999,1444105252.225321,18.06906127929688,-15.1376953125,-31.45991516113281,244.0233306884766,230.3121337890625,10,432178.1375213334,0.0035247802734375,-0.007049560546875,-0.9852294921875,432178.1371920417,-0.004366518923293919,-0.0009337042781817809,-0.03800943402593791,432178.0894181667,-0.138869986919654,0.00654726426209066,0.002139236023887642,-0.0005193963879719377,-0.00761945778504014,-0.004234266001731157,0.009001503698527813,0.002413892652839422,0.01856148429214954,XArbitraryZVertical,0.001294156182223925,0.003191527307875531,-0.06937530882846289,0.9975846860483431,0.006547202356159687,-0.002139234449714422,-0.9999762773513794,0,0,0,-1,10.142.150.220,100.92.133.249,1,1,0.6,0
2015-10-05 21:20:52.299,27,7046C08F-1AFD-4AA7-9EF7-651803F23386,my_iOS_device_1,1444105248.10902,37.87145478548706,-122.2584692951743,87.9624,-1,-1,10,65,-9999,1444105252.277138,18.52627563476562,-15.12075805664062,-31.27812194824219,244.0219421386719,230.3107452392578,10,432178.1867277917,0.0100860595703125,0.0054168701171875,-0.985321044921875,432178.1371920417,-0.004366518923293919,-0.0009337042781817809,-0.03800943402593791,432178.1371920417,-0.1389358179447736,0.006759965660060893,0.001882457936660028,-0.006429426837712526,-0.002736703725531697,-0.005509689915925264,0.001327255973592401,-0.001947499229572713,0.01431864127516747,XArbitraryZVertical,0.001173564277507583,0.003306490402321491,-0.06940844862911727,0.9975821555776758,0.006759901996701956,-0.001882456825114787,-0.9999753832817078,0,0,0,-1,10.142.150.220,100.92.133.249,1,1,0.6,0
2015-10-05 21:20:52.368,28,7046C08F-1AFD-4AA7-9EF7-651803F23386,my_iOS_device_1,1444105248.10902,37.87145478548706,-122.2584692951743,87.9624,-1,-1,10,65,-9999,1444105252.329126,18.66171264648438,-15.18850708007812,-31.24508666992188,244.0245056152344,230.3133087158203,10,432178.2357192084,0.0092620849609375,-0.0026702880859375,-0.982696533203125,432178.2327401667,-0.001940645486340741,-0.009369799663225783,-0.03913222274151532,432178.18496625,-0.1391448546749086,0.006357808960555945,0.002060568615169421,-0.0005519561236724257,-0.001600245013833046,-0.0054465695284307,-0.001352869789116085,0.004974995739758015,0.01436670403927565,XArbitraryZVertical,0.001248771721044761,0.003099585902821458,-0.06951266003278032,0.9975754724488689,0.006357752718031406,-0.002060567261651158,-0.9999776482582092,0,0,0,-1,10.142.150.220,100.92.133.249,1,1,0.6,0
2015-10-05 21:20:52.397,29,7046C08F-1AFD-4AA7-9EF7-651803F23386,my_iOS_device_1,1444105248.10902,37.87145478548706,-122.2584692951743,87.9624,-1,-1,10,65,-9999,1444105252.380348,18.40771484375,-15.37478637695312,-31.39382934570312,244.0194244384766,230.3082275390625,10,432178.2848101667,0.00250244140625,-0.005828857421875,-0.9874114990234375,432178.2327401667,-0.001940645486340741,-0.009369799663225783,-0.03913222274151532,432178.2327401667,-0.139215975773452,0.006397144311018758,0.001850396477453423,-0.004003248643130064,-0.01117513794451952,-0.006633078679442406,0.0009271290036849678,-0.00147602055221796,0.01676249504089355,XArbitraryZVertical,0.001145418816038298,0.003126470646178816,-0.06954845220136627,0.9975730178755969,0.006397089920938015,-0.00185039546340704,-0.9999778270721436,0,0,0,-1,10.142.150.220,100.92.133.249,1,1,0.6,0
2015-10-05 21:20:52.471,30,7046C08F-1AFD-4AA7-9EF7-651803F23386,my_iOS_device_1,1444105248.10902,37.87145478548706,-122.2584692951743,87.9624,-1,-1,10,65,-9999,1444105252.432026,18.22140502929688,-15.29013061523438,-31.41035461425781,244.0065002441406,230.2953033447266,10,432178.333910125,0.0122833251953125,0.0048828125,-0.98162841796875,432178.3282882917,-0.002009088726355777,-0.005789179577614248,-0.0344027149616436,432178.2805142084,-0.1393720196030908,0.006209141355893944,0.002116804329794128,0.006522597745060921,-0.0005058526294305921,0.003012896981090307,-0.005690288729965687,-0.001514789066277444,0.01622909307479858,XArbitraryZVertical,0.001271997661293972,0.003023333128924536,-0.06962597019772308,0.9975677750171986,0.006209087558090687,-0.002116802847012877,-0.9999784827232361,0,0,0,-1,10.142.150.220,100.92.133.249,1,1,0.6,0
2015-10-05 21:20:52.496,31,7046C08F-1AFD-4AA7-9EF7-651803F23386,my_iOS_device_1,1444105248.10902,37.87145478548706,-122.2584692951743,87.9624,-1,-1,10,65,-9999,1444105252.484618,18.322998046875,-15.323974609375,-31.27815246582031,243.9941253662109,230.2829284667969,10,432178.383006,0.0068359375,-0.0045166015625,-0.98297119140625,432178.3760625417,0.00270017902923134,-0.003419498839661742,-0.03673111670269988,432178.3282882917,-0.1393074250134451,0.006142759702467243,0.00204596047093113,-0.003971609752625227,-0.007582671474665403,-0.001824548002332449,0.0015477214474231,0.003968566656112671,0.0177860464900732,XArbitraryZVertical,0.001234254297043332,0.002992729408302971,-0.06959390469369812,0.9975701522281532,0.006142708007246256,-0.002045959001407027,-0.9999790191650391,0,0,0,-1,10.142.150.220,100.92.133.249,1,1,0.6,0
2015-10-05 21:20:52.570,32,7046C08F-1AFD-4AA7-9EF7-651803F23386,my_iOS_device_1,1444105248.10902,37.87145478548706,-122.2584692951743,87.9624,-1,-1,10,65,-9999,1444105252.535464,18.35684204101562,-15.32400512695312,-31.01374816894531,243.984130859375,230.2729339599609,10,432178.4320965417,0.005615234375,-0.0020904541015625,-0.98785400390625,432178.4238365417,0.01555179550162672,0.007261641344319059,-0.03544028252233847,432178.3760625417,-0.1391926111141289,0.006379333860008554,0.001977651625059453,0.0007363668410107493,-0.005208751186728477,-0.00415327399969101,-0.0002605037007015198,-0.002020152285695076,0.01870023086667061,XArbitraryZVertical,0.001208236226389892,0.003113175567738143,-0.0695366017234349,0.9975738114665298,0.006379277911037207,-0.001977650448679924,-0.999977707862854,0,0,0,-1,10.142.150.220,100.92.133.249,1,1,0.6,0
2015-10-05 21:20:52.593,33,7046C08F-1AFD-4AA7-9EF7-651803F23386,my_iOS_device_1,1444105248.10902,37.87145478548706,-122.2584692951743,87.9624,-1,-1,10,65,-9999,1444105252.588001,18.25521850585938,-15.18853759765625,-31.2120361328125,243.9790191650391,230.267822265625,10,432178.4811881667,0.0063934326171875,-0.005218505859375,-0.9849395751953125,432178.4716107917,0.004879976381461196,0.007317567727210723,-0.02607341233631177,432178.4238365417,-0.139264994042951,0.006086160776802886,0.00211910960931869,0.01366532407701015,0.005494714714586735,-0.002777275396510959,-0.00286650494672358,-0.002290681935846806,0.0128423934802413,XArbitraryZVertical,0.001268707671832772,0.002961980027075446,-0.0695726619631415,0.9975716825183654,0.006086109671741724,-0.002119108103215694,-0.9999792575836182,0,0,0,-1,10.142.150.220,100.92.133.249,1,1,0.6,0
2015-10-05 21:20:52.671,34,7046C08F-1AFD-4AA7-9EF7-651803F23386,my_iOS_device_1,1444105248.10902,37.87145478548706,-122.2584692951743,87.9624,-1,-1,10,65,-9999,1444105252.639308,18.59396362304688,-15.222412109375,-31.47640991210938,243.9747467041016,230.2635498046875,10,432178.5302974167,0.0054779052734375,-0.0078125,-0.9864349365234375,432178.51938475,-0.005424859140491408,-0.005676794179612904,-0.04749215171938306,432178.4716107917,-0.1391518422852647,0.006139030189512893,0.002219762553076758,0.002993075177073479,0.005550124682486057,0.006589278113096952,-0.001286681625060737,0.00109061028342694,0.01433721277862787,XArbitraryZVertical,0.001320582166580394,0.002984923583135321,-0.06951603190055149,0.9975754946883684,0.006138976663351059,-0.002219760790467262,-0.9999787211418152,0,0,0,-1,10.142.150.220,100.92.133.249,1,1,0.6,0
2015-10-05 21:20:52.692,35,7046C08F-1AFD-4AA7-9EF7-651803F23386,my_iOS_device_1,1444105248.10902,37.87145478548706,-122.2584692951743,87.9624,-1,-1,10,65,-9999,1444105252.639308,18.59396362304688,-15.222412109375,-31.47640991210938,243.9747467041016,230.2635498046875,10,432178.579414625,0.0074310302734375,0.003570556640625,-0.980712890625,432178.5671590834,0.0003826962486443865,-0.008205199318534133,-0.03673750828931607,432178.51938475,-0.1392650524606528,0.005879642171379894,0.002340057368607156,-0.007309889886528254,-0.007445718161761761,-0.01482972037047148,-0.003407668322324753,-0.001352571765892208,0.01526928413659334,XArbitraryZVertical,0.001371729315187858,0.002851284734751195,-0.06957248918165308,0.9975718807600351,0.005879592150449753,-0.002340055303648114,-0.9999799728393555,0,0,0,-1,10.142.150.220,100.92.133.249,1,1,0.6,0
2015-10-05 21:20:52.769,36,7046C08F-1AFD-4AA7-9EF7-651803F23386,my_iOS_device_1,1444105248.10902,37.87145478548706,-122.2584692951743,87.9624,-1,-1,10,65,-9999,1444105252.692452,18.56005859375,-15.0191650390625,-31.5755615234375,243.9819488525391,230.270751953125,10,432178.6285017917,0.00970458984375,-0.0002899169921875,-0.9831695556640625,432178.6149330417,0.00136353847812057,0.009780192787206994,-0.02968359351002319,432178.6149330417,-0.1394043663905034,0.005896731088431046,0.002039493697127209,-0.00047158362576738,0.008038598112761974,0.003032139036804438,0.002800825051963329,0.002481997245922685,0.01949652656912804,XArbitraryZVertical,0.00122260683271464,0.002870179771718419,-0.06964241858595169,0.9975671410156347,0.005896684713661671,-0.002039492363110185,-0.9999805092811584,0,0,0,-1,10.142.150.220,100.92.133.249,1,1,0.6,0
2015-10-05 21:20:52.791,37,7046C08F-1AFD-4AA7-9EF7-651803F23386,my_iOS_device_1,1444105248.10902,37.87145478548706,-122.2584692951743,87.9624,-1,-1,10,65,-9999,1444105252.768396,18.475341796875,-15.23934936523438,-31.55905151367188,243.9928741455078,230.2816772460938,10,432178.6776007084,0.0029144287109375,-0.000579833984375,-0.98516845703125,432178.662707375,0.003780623483476487,0.002546780950442775,-0.03081144223167175,432178.6149330417,-0.1394043663905034,0.005896731088431046,0.002039493697127209,-0.00047158362576738,0.008038598112761974,0.003032139036804438,0.002800825051963329,0.002481997245922685,0.01949652656912804,XArbitraryZVertical,0.00122260683271464,0.002870179771718419,-0.06964241858595169,0.9975671410156347,0.005896684713661671,-0.002039492363110185,-0.9999805092811584,0,0,0,-1,10.142.150.220,100.92.133.249,1,1,0.6,0
2015-10-05 21:20:52.870,38,7046C08F-1AFD-4AA7-9EF7-651803F23386,my_iOS_device_1,1444105248.10902,37.87145478548706,-122.2584692951743,87.9624,-1,-1,10,65,-9999,1444105252.820633,18.50918579101562,-15.4764404296875,-31.26162719726562,243.9870758056641,230.27587890625,10,432178.726746875,0.0057830810546875,-0.0109405517578125,-0.9854888916015625,432178.7104815834,-0.00450873172550415,0.001388838508476323,-0.02378495801160668,432178.7104815834,-0.1394510637871815,0.005882038172760352,0.001978132100872592,-0.00634334422647953,-0.0003504811029415578,0.008930119685828686,-0.001701084547676146,-0.001973895588889718,0.01429348811507225,XArbitraryZVertical,0.001191555956535414,0.002864960233697574,-0.06966581160195442,0.9975655601969727,0.005881992634385824,-0.001978130778297782,-0.9999807476997375,0,0,0,-1,10.142.150.220,100.92.133.249,1,1,0.6,0
2015-10-05 21:20:52.888,39,7046C08F-1AFD-4AA7-9EF7-651803F23386,my_iOS_device_1,1444105248.10902,37.87145478548706,-122.2584692951743,87.9624,-1,-1,10,65,-9999,1444105252.874095,18.72930908203125,-15.42562866210938,-31.24508666992188,243.9732818603516,230.2620849609375,10,432178.7758217084,0.0023651123046875,0.0008392333984375,-0.9822235107421875,432178.758255625,0.003742007647670337,0.004938299609333932,-0.02844948466088047,432178.7104815834,-0.1394510637871815,0.005882038172760352,0.001978132100872592,-0.00634334422647953,-0.0003504811029415578,0.008930119685828686,-0.001701084547676146,-0.001973895588889718,0.01429348811507225,XArbitraryZVertical,0.001191555956535414,0.002864960233697574,-0.06966581160195442,0.9975655601969727,0.005881992634385824,-0.001978130778297782,-0.9999807476997375,0,0,0,-1,10.142.150.220,100.92.133.249,1,1,0.6,0
2015-10-05 21:20:52.970,40,7046C08F-1AFD-4AA7-9EF7-651803F23386,my_iOS_device_1,1444105248.10902,37.87145478548706,-122.2584692951743,87.9624,-1,-1,10,65,-9999,1444105252.924521,18.678466796875,-15.74737548828125,-31.26164245605469,243.9662017822266,230.2550048828125,10,432178.8249185,0.0078582763671875,-0.0054931640625,-0.9854278564453125,432178.8060299584,0.005107942970771979,-0.0009906959255094766,-0.04501727611837242,432178.8060299584,-0.1397192974502733,0.005462671542851281,0.00198759028829171,0.003363271011039615,-0.002702915575355291,-0.01222070585936308,0.002532971790060401,0.002460611518472433,0.0126478997990489,XArbitraryZVertical,0.001182021885054344,0.002655299330708759,-0.06979983649023207,0.9975567828628409,0.005462633445858955,-0.001987589057534933,-0.9999831318855286,0,0,0,-1,10.142.150.220,100.92.133.249,1,1,0.6,0
2015-10-05 21:20:52.987,41,7046C08F-1AFD-4AA7-9EF7-651803F23386,my_iOS_device_1,1444105248.10902,37.87145478548706,-122.2584692951743,87.9624,-1,-1,10,65,-9999,1444105252.976078,18.52603149414062,-15.32400512695312,-31.54257202148438,243.9600219726562,230.2488250732422,10,432178.8740283333,0.00439453125,-0.0027923583984375,-0.98614501953125,432178.8538040417,0.0004093278595451789,-0.003353452444627777,-0.04387557895905545,432178.8060299584,-0.1397192974502733,0.005462671542851281,0.00198759028829171,0.003363271011039615,-0.002702915575355291,-0.01222070585936308,0.002532971790060401,0.002460611518472433,0.0126478997990489,XArbitraryZVertical,0.001182021885054344,0.002655299330708759,-0.06979983649023207,0.9975567828628409,0.005462633445858955,-0.001987589057534933,-0.9999831318855286,0,0,0,-1,10.142.150.220,100.92.133.249,1,1,0.6,0
2015-10-05 21:20:53.074,42,7046C08F-1AFD-4AA7-9EF7-651803F23386,my_iOS_device_1,1444105248.10902,37.87145478548706,-122.2584692951743,87.9624,-1,-1,10,65,-9999,1444105253.029066,18.30587768554688,-15.1038818359375,-31.39387512207031,243.954345703125,230.2431488037109,10,432178.923129875,0.009002685546875,-0.0009765625,-0.9863433837890625,432178.9015782501,0.001589907170777305,-0.008196943519154887,-0.04028244201632054,432178.9015782501,-0.1398475762167971,0.005480387696694373,0.001796894838789479,-0.0001542359532322735,-0.009907295927405357,-0.007486464455723763,0.004987177904695272,-0.0004308893403504044,0.01437240652740002,XArbitraryZVertical,0.001087696741720178,0.002670721767127399,-0.06986407548378779,0.9975523520687185,0.005480351392179728,-0.001796893891878426,-0.9999833703041077,0,0,0,-1,10.142.150.220,100.92.133.249,1,1,0.6,0
2015-10-05 21:20:53.085,43,7046C08F-1AFD-4AA7-9EF7-651803F23386,my_iOS_device_1,1444105248.10902,37.87145478548706,-122.2584692951743,87.9624,-1,-1,10,65,-9999,1444105253.079939,18.54296875,-14.66360473632812,-31.32778930664062,243.9786071777344,230.2674102783203,10,432178.972220375,0.0063323974609375,-0.002593994140625,-0.9836883544921875,432178.9493525417,-0.0008309062601047223,-0.004592354983732639,-0.03558036479567664,432178.9493525417,-0.1399793285013599,0.005646441991381423,0.001591347558475694,-0.002496521221473813,-0.006270463578402996,-0.002707646228373051,0.003722491674125195,0.005116126965731382,0.0170878954231739,XArbitraryZVertical,0.0009911571842118206,0.002760661077915502,-0.06992999519865241,0.9975475889045905,0.005646404810249805,-0.001591346925124526,-0.9999827742576599,0,0,0,-1,10.142.150.220,100.92.133.249,1,1,0.6,0
2015-10-05 21:20:53.172,44,7046C08F-1AFD-4AA7-9EF7-651803F23386,my_iOS_device_1,1444105248.10902,37.87145478548706,-122.2584692951743,87.9624,-1,-1,10,65,-9999,1444105253.131687,18.10263061523438,-14.62973022460938,-31.19560241699219,243.9890441894531,230.2778472900391,10,432179.0213084167,0.0054168701171875,-0.00567626953125,-0.981048583984375,432178.9971269167,-0.001966211832805501,-0.00455240756738145,-0.04033890103143022,432178.9971269167,-0.1401640617964569,0.005661142908577314,0.001686403756502596,-0.003631973173469305,-0.006228161044418812,-0.007466533686965704,-0.0008088097092695534,-0.0001599105162313208,0.0172555036842823,XArbitraryZVertical,0.001039338084054997,0.002764573665634585,-0.07002199080913746,0.9975410757016053,0.005661104805767536,-0.001686402945779264,-0.9999825358390808,0,0,0,-1,10.142.150.220,100.92.133.249,1,1,0.6,0
2015-10-05 21:20:53.183,45,7046C08F-1AFD-4AA7-9EF7-651803F23386,my_iOS_device_1,1444105248.10902,37.87145478548706,-122.2584692951743,87.9624,-1,-1,10,65,-9999,1444105253.131687,18.10263061523438,-14.62973022460938,-31.19560241699219,243.9890441894531,230.2778472900391,10,432179.0704045417,0.009552001953125,-0.00482177734375,-0.9841766357421875,432179.0449010417,-0.002099369887309464,0.005027515505851586,-0.03326288201508969,432179.0449010417,-0.1403499876502741,0.005684998755733728,0.001877730707736824,-0.003763225860893726,0.003351625520735979,-0.000390805653296411,0.002554788021370769,0.00233549322001636,0.0141117163002491,XArbitraryZVertical,0.001135858988451025,0.002769667662382167,-0.070114435208982,0.9975344629338478,0.005684958305209875,-0.00187772954814136,-0.9999820590019226,0,0,0,-1,10.142.150.220,100.92.133.249,1,1,0.6,0
2015-10-05 21:20:53.292,46,7046C08F-1AFD-4AA7-9EF7-651803F23386,my_iOS_device_1,1444105248.10902,37.87145478548706,-122.2584692951743,87.9624,-1,-1,10,65,-9999,1444105253.235506,18.03488159179688,-15.40869140625,-31.32780456542969,243.9501190185547,230.2389221191406,10,432179.11949925,0.006317138671875,-0.0016326904296875,-0.9836883544921875,432179.0926753751,0.002839196038133476,-0.01662078836318453,-0.04141934548567537,432179.0926753751,-0.140478538772134,0.005655917149952255,0.001882949733847323,0.001239726785570383,-0.01826853305101395,-0.008483672514557838,-0.0003153008001390845,0.0007537982310168445,0.01458489336073399,XArbitraryZVertical,0.001137619622000139,0.002754906616229832,-0.07017856112916029,0.9975299924658753,0.005655876826494932,-0.001882948563434184,-0.9999822378158569,0,0,0,-1,10.142.150.220,100.92.133.249,1,1,0.6,0
2015-10-05 21:20:53.301,47,7046C08F-1AFD-4AA7-9EF7-651803F23386,my_iOS_device_1,1444105248.10902,37.87145478548706,-122.2584692951743,87.9624,-1,-1,10,65,-9999,1444105253.291405,18.01791381835938,-15.594970703125,-31.54263305664062,243.9204559326172,230.2092590332031,10,432179.1685950833,0.0036773681640625,-0.002288818359375,-0.9842071533203125,432179.140449625,0.007325024578262945,0.006144977899248835,-0.03553082999940117,432179.140449625,-0.1404967103725484,0.005563588784325156,0.001985813396278924,0.005725666880607605,0.004497614689171314,-0.002595468889921904,0.0005399665096774697,-0.0005776644684374332,0.01287622842937708,XArbitraryZVertical,0.001185709244408009,0.002705235996447266,-0.07018753071689358,0.9975294413317601,0.005563549231737852,-0.001985812094062567,-0.9999825358390808,0,0,0,-1,10.142.150.220,100.92.133.249,1,1,0.6,0
2015-10-05 21:20:53.371,48,7046C08F-1AFD-4AA7-9EF7-651803F23386,my_iOS_device_1,1444105248.10902,37.87145478548706,-122.2584692951743,87.9624,-1,-1,10,65,-9999,1444105253.291405,18.01791381835938,-15.594970703125,-31.54263305664062,243.9204559326172,230.2092590332031,10,432179.2176735834,0.0063629150390625,-0.003082275390625,-0.9853973388671875,432179.1882239167,-0.004446680072105304,0.009889915024118259,-0.03805577302890529,432179.1882239167,-0.1404095444814061,0.005496471606534006,0.001838488477934402,-0.006046375259757042,0.008241499774158001,-0.005120732821524143,0.001125879818573594,-0.001945692230947316,0.01505888812243938,XArbitraryZVertical,0.001109756726346318,0.00267697926631698,-0.07014430200917549,0.9975326456400608,0.00549643486738205,-0.001838487456552684,-0.9999831914901733,0,0,0,-1,10.142.150.220,100.92.133.249,1,1,0.6,0
2015-10-05 21:20:53.379,49,7046C08F-1AFD-4AA7-9EF7-651803F23386,my_iOS_device_1,1444105248.10902,37.87145478548706,-122.2584692951743,87.9624,-1,-1,10,65,-9999,1444105253.36499,17.86553955078125,-15.20550537109375,-31.6583251953125,243.8844909667969,230.1732940673828,10,432179.26676475,0.00531005859375,-0.001373291015625,-0.97906494140625,432179.23599825,0.002738528548928481,-0.005811017498552898,-0.03909307427349115,432179.23599825,-0.1407372188071932,0.005358578882443653,0.001774927235614282,0.001139798434451222,-0.00745742442086339,-0.006158302072435617,0.004162939731031656,-0.002802710514515638,0.01605157181620598,XArbitraryZVertical,0.001073645998235548,0.002610256531748205,-0.07030789731955381,0.997521344844114,0.005358544643968344,-0.001774926320649683,-0.999984085559845,0,0,0,-1,10.142.150.220,100.92.133.249,1,1,0.6,0
2015-10-05 21:20:53.439,50,7046C08F-1AFD-4AA7-9EF7-651803F23386,my_iOS_device_1,1444105248.10902,37.87145478548706,-122.2584692951743,87.9624,-1,-1,10,65,-9999,1444105253.417507,18.37353515625,-14.96841430664062,-31.42697143554688,243.8858947753906,230.1746978759766,10,432179.3158579583,0.00384521484375,0.0012969970703125,-0.9853973388671875,432179.2837727084,-0.003187271192606832,0.001472994398922827,-0.0403785821316724,432179.2837727084,-0.1406991313918923,0.005516021794839575,0.001756409072056525,-0.004723939578980207,-0.0001443433866370469,-0.007381273433566093,0.005760259926319122,-0.002607605420053005,0.009001188911497593,XArbitraryZVertical,0.001069893391339466,0.002689454262543039,-0.07028884211710221,0.9975224813695861,0.005515985190868378,-0.001756408135406673,-0.9999832510948181,0,0,0,-1,10.142.150.220,100.92.133.249,1,1,0.6,0
2015-10-05 21:20:53.478,51,7046C08F-1AFD-4AA7-9EF7-651803F23386,my_iOS_device_1,1444105248.10902,37.87145478548706,-122.2584692951743,87.9624,-1,-1,10,65,-9999,1444105253.468948,18.57672119140625,-15.51034545898438,-31.36087036132812,243.8833465576172,230.1721496582031,10,432179.365007,0.0037078857421875,-0.0039520263671875,-0.986175537109375,432179.3315469584,-0.005452556015828233,-0.003278351301887542,-0.04631663241422208,432179.3315469584,-0.1407477963009673,0.005503621865541953,0.001533071974367907,-0.006989351473748684,-0.004894369747489691,-0.01331964414566755,0.00104243285022676,0.0006175440503284335,0.01631058380007744,XArbitraryZVertical,0.0009581312259431561,0.002691095920868549,-0.07031343388598643,0.9975208574272812,0.005503587424755096,-0.001533071394078434,-0.9999836683273315,0,0,0,-1,10.142.150.220,100.92.133.249,1,1,0.6,0
2015-10-05 21:20:53.538,52,7046C08F-1AFD-4AA7-9EF7-651803F23386,my_iOS_device_1,1444105248.10902,37.87145478548706,-122.2584692951743,87.9624,-1,-1,10,65,-9999,1444105253.520132,18.74609375,-15.84902954101562,-31.09646606445312,243.8750457763672,230.1638488769531,10,432179.41405025,0.007568359375,-0.00262451171875,-0.9853973388671875,432179.3793214583,0.003935619458919098,-0.00580941960189885,-0.04145183605097433,432179.3793214583,-0.1408959518993403,0.005480646389438159,0.00170682558599357,0.002400652505457401,-0.007424138020724058,-0.008455172181129456,0.001263773767277598,0.00219510612078011,0.01679871045053005,XArbitraryZVertical,0.001044182928871435,0.00267345033726423,-0.0703870964143659,0.9975156234383795,0.005480610765516758,-0.001706824754364789,-0.999983549118042,0,0,0,-1,10.142.150.220,100.92.133.249,1,1,0.6,0
2015-10-05 21:20:53.576,53,7046C08F-1AFD-4AA7-9EF7-651803F23386,my_iOS_device_1,1444105248.10902,37.87145478548706,-122.2584692951743,87.9624,-1,-1,10,65,-9999,1444105253.572408,18.84771728515625,-16.05224609375,-30.79902648925781,243.85498046875,230.1437835693359,10,432179.46315825,0.00830078125,-0.0023956298828125,-0.9861297607421875,432179.4270956667,-0.004351871537298483,-0.005758020592860321,-0.03561631747039271,432179.4270956667,-0.1407796842866479,0.00545198859643365,0.001758756410427735,-0.005886209197342396,-0.007371529471129179,-0.002619964070618153,0.004756176844239235,0.001697720377705991,0.01437262911349535,XArbitraryZVertical,0.001068920773361191,0.002657391432016592,-0.07032904967955149,0.997519734366357,0.005451953038573265,-0.001758755533955991,-0.9999836087226868,0,0,0,-1,10.142.150.220,100.92.133.249,1,1,0.6,0
2015-10-05 21:20:53.638,54,7046C08F-1AFD-4AA7-9EF7-651803F23386,my_iOS_device_1,1444105248.10902,37.87145478548706,-122.2584692951743,87.9624,-1,-1,10,65,-9999,1444105253.624417,18.881591796875,-15.6119384765625,-30.89816284179688,243.8482971191406,230.1371002197266,10,432179.512235125,0.007476806640625,0.001678466796875,-0.9863433837890625,432179.4748701667,-0.00453829281360403,0.0110372048217244,-0.02857092480658808,432179.4748701667,-0.1408132277004009,0.005600828882382105,0.001811529442029179,-0.006017927546054125,0.009452080354094505,0.004482015501707792,-0.003144125454127789,-0.00139281724113971,0.01284583378583193,XArbitraryZVertical,0.0011005215065189,0.002729752661534966,-0.07034562466408201,0.9975183358682886,0.005600790493190289,-0.00181152846198529,-0.9999826550483704,0,0,0,-1,10.142.150.220,100.92.133.249,1,1,0.6,0
2015-10-05 21:20:53.674,55,7046C08F-1AFD-4AA7-9EF7-651803F23386,my_iOS_device_1,1444105248.10902,37.87145478548706,-122.2584692951743,87.9624,-1,-1,10,65,-9999,1444105253.624417,18.881591796875,-15.6119384765625,-30.89816284179688,243.8482971191406,230.1371002197266,10,432179.561354625,0.007598876953125,-0.0035552978515625,-0.9880828857421875,432179.5226444167,0.006126069455509271,-0.00352496001882888,-0.02482758557837271,432179.5226444167,-0.1407824610353573,0.00566433517574522,0.001812353875333594,0.004645879846066236,-0.005109105259180069,0.008225025609135628,0.001110606710426509,0.0006374260992743075,0.0160650797188282,XArbitraryZVertical,0.001103123914751911,0.002761414976505223,-0.07033024332951904,0.9975193304283212,0.005664295516908169,-0.001812352915294468,-0.9999822974205017,0,0,0,-1,10.142.150.220,100.92.133.249,1,1,0.6,0
2015-10-05 21:20:53.739,56,7046C08F-1AFD-4AA7-9EF7-651803F23386,my_iOS_device_1,1444105248.10902,37.87145478548706,-122.2584692951743,87.9624,-1,-1,10,65,-9999,1444105253.728063,18.67843627929688,-15.27328491210938,-31.09648132324219,243.8576049804688,230.1464080810547,10,432179.6104529584,0.0131988525390625,-0.006103515625,-0.980499267578125,432179.5704189167,-0.005407015961187877,-0.008081894960063464,-0.04748176539113175,432179.5704189167,-0.1411432908333174,0.005697560952301848,0.001584733919941813,-0.00688763614743948,-0.009664743207395077,-0.01442944444715977,0.001901353942230344,-0.001970564480870962,0.01189962774515152,XArbitraryZVertical,0.0009912673082334556,0.002785812708737482,-0.07051052141659929,0.9975066531137698,0.005697522778064013,-0.001584733254276216,-0.9999825358390808,0,0,0,-1,10.142.150.220,100.92.133.249,1,1,0.6,0
2015-10-05 21:20:53.773,57,7046C08F-1AFD-4AA7-9EF7-651803F23386,my_iOS_device_1,1444105248.10902,37.87145478548706,-122.2584692951743,87.9624,-1,-1,10,65,-9999,1444105253.728063,18.67843627929688,-15.27328491210938,-31.09648132324219,243.8576049804688,230.1464080810547,10,432179.6595469167,-0.0004425048828125,-0.001922607421875,-0.995452880859375,432179.6181931667,0.003848534091273507,-0.001033572819059752,-0.03554095001154346,432179.6181931667,-0.1413129839881389,0.005702419350768549,0.001727605542108781,0.002414038171991706,-0.002589591778814793,-0.002441911026835442,0.00749647244811058,-0.004375910852104425,0.01948298141360283,XArbitraryZVertical,0.001062932404373056,0.002783108369769992,-0.07059494643327953,0.9975006155489773,0.00570238009095192,-0.001727604656480253,-0.9999822378158569,0,0,0,-1,10.142.150.220,100.92.133.249,1,1,0.6,0
2015-10-05 21:20:53.841,58,7046C08F-1AFD-4AA7-9EF7-651803F23386,my_iOS_device_1,1444105248.10902,37.87145478548706,-122.2584692951743,87.9624,-1,-1,10,65,-9999,1444105253.832146,18.37362670898438,-15.34100341796875,-30.86515808105469,243.8466033935547,230.1354064941406,10,432179.708640125,0.006072998046875,-0.0011444091796875,-0.9841766357421875,432179.6659677917,-0.007910653701971368,-0.01299143242962454,-0.02613652925414665,432179.6659677917,-0.1410416511839619,0.005382454684247606,0.001464619475695028,-0.009344327263534069,-0.01454667001962662,0.006962206680327654,-0.00582492770627141,-0.0004579884698614478,0.004531561397016048,XArbitraryZVertical,0.00092011685036322,0.002632934065107102,-0.0704601479444894,0.9975106959801638,0.00538242282345891,-0.001464618952013552,-0.9999844431877136,0,0,0,-1,10.142.150.220,100.92.133.249,1,1,0.6,0
2015-10-05 21:20:53.874,59,7046C08F-1AFD-4AA7-9EF7-651803F23386,my_iOS_device_1,1444105248.10902,37.87145478548706,-122.2584692951743,87.9624,-1,-1,10,65,-9999,1444105253.832146,18.37362670898438,-15.34100341796875,-30.86515808105469,243.8466033935547,230.1354064941406,10,432179.7577280834,0.01348876953125,-0.0065765380859375,-0.981719970703125,432179.7137420417,0.00259498416617321,0.003761448723627916,-0.03083035067541131,432179.7137420417,-0.1413231575987682,0.004588331507177903,0.00136453729313961,0.001161957392469049,0.002201608382165432,0.002268064068630338,0.001484686858020723,0.0002201276947744191,0.01581190712749958,XArbitraryZVertical,0.0008425385321589088,0.002240268204248532,-0.07060102701558563,0.9975017625606182,0.004588311072438955,-0.001364536816254258,-0.9999885559082031,0,0,0,-1,10.142.150.220,100.92.133.249,1,1,0.6,0
2015-10-05 21:20:53.970,60,7046C08F-1AFD-4AA7-9EF7-651803F23386,my_iOS_device_1,1444105248.10902,37.87145478548706,-122.2584692951743,87.9624,-1,-1,10,65,-9999,1444105253.935291,18.59381103515625,-15.52725219726562,-31.44352722167969,243.8260803222656,230.1148834228516,10,432179.8068097084,0.000244140625,-0.0009918212890625,-0.9895782470703125,432179.809291,-0.00203572033725657,0.006278135953752796,-0.0415716783000279,432179.7615166667,-0.1415487591989334,0.005118044190155743,0.00114505404702685,0.003656954737380147,-0.01584827527403831,0.001185672008432448,0.008370750583708286,-0.005431484431028366,0.01826627738773823,XArbitraryZVertical,0.0007520536353558447,0.002512126187459556,-0.07071360486092269,0.9974932128716073,0.005118018481880426,-0.001145053771324456,-0.9999862313270569,0,0,0,-1,10.142.150.220,100.92.133.249,1,1,0.6,0
2015-10-05 21:20:53.973,61,7046C08F-1AFD-4AA7-9EF7-651803F23386,my_iOS_device_1,1444105248.10902,37.87145478548706,-122.2584692951743,87.9624,-1,-1,10,65,-9999,1444105253.935291,18.59381103515625,-15.52725219726562,-31.44352722167969,243.8260803222656,230.1148834228516,10,432179.8558986667,0.0099639892578125,-0.00030517578125,-0.984375,432179.809291,-0.00203572033725657,0.006278135953752796,-0.0415716783000279,432179.809291,-0.1419107983905351,0.004896002698288896,0.001195040630644116,-0.003424249589443207,0.004751209635287523,-0.008426399901509285,-0.004651838913559914,0.0002032190532190725,0.01040905341506004,XArbitraryZVertical,0.0007695679591196178,0.00239947702561184,-0.07089419056050447,0.9974806584690912,0.004895979538559914,-0.001195040298625827,-0.9999873042106628,0,0,0,-1,10.142.150.220,100.92.133.249,1,1,0.6,0
2015-10-05 21:20:54.040,62,7046C08F-1AFD-4AA7-9EF7-651803F23386,my_iOS_device_1,1444105248.10902,37.87145478548706,-122.2584692951743,87.9624,-1,-1,10,65,-9999,1444105253.987576,18.61074829101562,-14.9683837890625,-31.75749206542969,243.8355712890625,230.1243743896484,10,432179.9049978334,0.009307861328125,-0.0038604736328125,-0.9856414794921875,432179.9048400834,-0.0007952199014976605,-0.009402822860742767,-0.03555985845528303,432179.8570654167,-0.142133897689645,0.004757444712469906,0.001036081133031357,-0.002275370294228196,-0.0001130277814809233,-0.001275081187486649,0.005206564906984568,0.0007309051579795778,0.01561314705759287,XArbitraryZVertical,0.000685637544187882,0.002335930971030207,-0.07100570363084288,0.9974729386702909,0.004757424350827932,-0.001036080997437239,-0.9999881386756897,0,0,0,-1,10.142.150.220,100.92.133.249,1,1,0.6,0
2015-10-05 21:20:54.073,63,7046C08F-1AFD-4AA7-9EF7-651803F23386,my_iOS_device_1,1444105248.10902,37.87145478548706,-122.2584692951743,87.9624,-1,-1,10,65,-9999,1444105254.038693,18.4921875,-14.98532104492188,-31.50961303710938,243.8475189208984,230.1363220214844,10,432179.954092375,0.00390625,-0.001556396484375,-0.9866485595703125,432179.9048400834,-0.0007952199014976605,-0.009402822860742767,-0.03555985845528303,432179.9048400834,-0.1424937693390153,0.004733548860972767,0.001196933031806302,-0.002184662036597729,-0.01092738844454288,-0.002415195805951953,0.001690422417595983,-0.005440640728920698,0.01578092761337757,XArbitraryZVertical,0.0007654290005343771,0.002318164641671026,-0.07118499872501899,0.9974601426561659,0.004733528010547161,-0.001196932746097445,-0.9999880790710449,0,0,0,-1,10.142.150.220,100.92.133.249,1,1,0.6,0
2015-10-05 21:20:54.140,64,7046C08F-1AFD-4AA7-9EF7-651803F23386,my_iOS_device_1,1444105248.10902,37.87145478548706,-122.2584692951743,87.9624,-1,-1,10,65,-9999,1444105254.090013,18.67852783203125,-14.69741821289062,-31.46005249023438,243.8730163574219,230.1618194580078,10,432180.003188625,0.003387451171875,-0.001312255859375,-0.9812774658203125,432180.0003890417,0.001450890161875169,0.005004079688258889,-0.03559421323334505,432179.952614375,-0.142573287746256,0.005019223907193843,0.001340613012201862,-0.00808790884912014,0.003621516050770879,-0.007247490808367729,-0.0001669033954385668,-0.0007498415070585907,0.01896843872964382,XArbitraryZVertical,0.0008473519955766679,0.002455491522319827,-0.07122436373948209,0.9974569377000122,0.005019198171794415,-0.00134061265271157,-0.9999865293502808,0,0,0,-1,10.142.150.220,100.92.133.249,1,1,0.6,0
2015-10-05 21:20:54.174,65,7046C08F-1AFD-4AA7-9EF7-651803F23386,my_iOS_device_1,1444105248.10902,37.87145478548706,-122.2584692951743,87.9624,-1,-1,10,65,-9999,1444105254.142561,18.74624633789062,-14.76519775390625,-31.36091613769531,243.9031219482422,230.1919250488281,10,432180.05227425,0.0073699951171875,-0.0066680908203125,-0.9785919189453125,432180.0003890417,0.001450890161875169,0.005004079688258889,-0.03559421323334505,432180.0003890417,-0.1425808890873241,0.00504551706900842,0.001198332108947381,0.0001057439440046437,0.003507592948153615,-0.002406997606158257,-0.005518514662981033,-0.0002512531355023384,0.0118578914552927,XArbitraryZVertical,0.0007773382342961734,0.002473668882399645,-0.07122832582859955,0.9974566668819181,0.005045492202043533,-0.001198331825435162,-0.9999865293502808,0,0,0,-1,10.142.150.220,100.92.133.249,1,1,0.6,0
2015-10-05 21:20:54.223,66,7046C08F-1AFD-4AA7-9EF7-651803F23386,my_iOS_device_1,1444105248.10902,37.87145478548706,-122.2584692951743,87.9624,-1,-1,10,65,-9999,1444105254.194472,18.54296875,-15.171630859375,-31.2947998046875,243.9143524169922,230.2031555175781,10,432180.10135925,0.0033721923828125,0.001556396484375,-0.988067626953125,432180.0959380834,0.0004269047227397019,-0.005758819541187345,-0.04386519263080414,432180.0481634167,-0.1427577864820634,0.004986027334267885,0.001250689193070123,-0.007954997010529041,-0.005957440473139286,-0.01432415097951889,0.003787800902500749,-0.0009313179762102664,0.01460470724850893,XArbitraryZVertical,0.0008015475147502745,0.002442064045590663,-0.07131650614923901,0.997450424730696,0.004986002575606108,-0.001250688917934895,-0.9999867677688599,0,0,0,-1,10.142.150.220,100.92.133.249,1,1,0.6,0
2015-10-05 21:20:54.294,67,7046C08F-1AFD-4AA7-9EF7-651803F23386,my_iOS_device_1,1444105248.10902,37.87145478548706,-122.2584692951743,87.9624,-1,-1,10,65,-9999,1444105254.249773,18.22125244140625,-15.56112670898438,-31.37741088867188,243.9004669189453,230.1892700195312,10,432180.15045,0.00506591796875,-0.0004119873046875,-0.9849090576171875,432180.1437124167,-0.0008383631111569442,-0.002180063668338865,-0.03677718938955825,432180.0959380834,-0.1428594177972125,0.004987327664067048,0.001413863605080484,-0.0009158094180747867,-0.007253045216202736,-0.01067860890179873,-0.00011974829249084,0.0005441121757030487,0.01141539681702852,XArbitraryZVertical,0.0008830968857062966,0.002436848904477157,-0.07136698482435612,0.9974467581702738,0.004987302236258984,-0.001413863152265549,-0.9999865889549255,0,0,0,-1,10.142.150.220,100.92.133.249,1,1,0.6,0
2015-10-05 21:20:54.322,68,7046C08F-1AFD-4AA7-9EF7-651803F23386,my_iOS_device_1,1444105248.10902,37.87145478548706,-122.2584692951743,87.9624,-1,-1,10,65,-9999,1444105254.249773,18.22125244140625,-15.56112670898438,-31.37741088867188,243.9004669189453,230.1892700195312,10,432180.1995341667,0.0043182373046875,0.00054931640625,-0.9827117919921875,432180.1914869584,0.007209443386953506,0.01331926755981329,-0.02844442465480932,432180.1437124167,-0.1429404353043504,0.004815890798074628,0.001419094247438722,-0.002139509189873934,-0.003646141849458218,-0.003551317378878593,3.642758747446351e-05,-0.0006713603506796062,0.0184810496866703,XArbitraryZVertical,0.0008796833018398945,0.002351127032903374,-0.07140745912078397,0.9974440701818217,0.00481586717069149,-0.001419093809090555,-0.9999874234199524,0,0,0,-1,10.142.150.220,100.92.133.249,1,1,0.6,0
2015-10-05 21:20:54.369,69,7046C08F-1AFD-4AA7-9EF7-651803F23386,my_iOS_device_1,1444105248.10902,37.87145478548706,-122.2584692951743,87.9624,-1,-1,10,65,-9999,1444105254.324652,18.10275268554688,-14.799072265625,-31.09651184082031,243.8977355957031,230.1865386962891,10,432180.2486214167,0.0072784423828125,-0.0002288818359375,-0.985870361328125,432180.2392615417,0.001506017596439809,-0.009461945036942525,-0.02960130183233974,432180.1914869584,-0.1427943258413548,0.00505283627893275,0.00167687681089745,0.005909462925046682,0.01185529213398695,0.004781142808496952,0.005384203977882862,0.0006545371725223958,0.01683153212070465,XArbitraryZVertical,0.001016525176015504,0.002460166950241393,-0.07133415430301808,0.9974489223439054,0.005052807740867138,-0.001676875981502235,-0.9999858140945435,0,0,0,-1,10.142.150.220,100.92.133.249,1,1,0.6,0
2015-10-05 21:20:54.421,70,7046C08F-1AFD-4AA7-9EF7-651803F23386,my_iOS_device_1,1444105248.10902,37.87145478548706,-122.2584692951743,87.9624,-1,-1,10,65,-9999,1444105254.376039,18.27206420898438,-14.83291625976562,-30.99736022949219,243.9078216552734,230.1966247558594,10,432180.2977165834,0.004425048828125,-0.00543212890625,-0.9771575927734375,432180.2870360833,0.00253719357051849,0.007348993028073658,-0.02728701484506088,432180.2392615417,-0.1427476608298019,0.004887515395192484,0.001609801593243965,0.0002042442501988262,-0.01092575583606958,0.003623914672061801,0.001368613913655281,0.004051207099109888,0.01294147223234177,XArbitraryZVertical,0.000977121076394354,0.002380132688115694,-0.071311048793086,0.9974508080716663,0.004887489601969719,-0.001609800849109888,-0.9999867677688599,0,0,0,-1,10.142.150.220,100.92.133.249,1,1,0.6,0
2015-10-05 21:20:54.472,71,7046C08F-1AFD-4AA7-9EF7-651803F23386,my_iOS_device_1,1444105248.10902,37.87145478548706,-122.2584692951743,87.9624,-1,-1,10,65,-9999,1444105254.428552,18.27212524414062,-15.23934936523438,-31.12956237792969,243.9026336669922,230.1914367675781,10,432180.34681,0.004913330078125,-0.0034942626953125,-0.9895782470703125,432180.3348106667,-0.01141990107036878,-0.00448183379849435,-0.0357034028380383,432180.2870360833,-0.1427396748888404,0.004984472309894472,0.001693422020479082,0.001273833448067307,0.005914590321481228,0.005971516482532024,-0.0001626671728445217,0.001281433855183423,0.01629778929054737,XArbitraryZVertical,0.001022272053554615,0.002425509946043596,-0.07130691215062213,0.9974509492405601,0.004984444472938776,-0.001693421159870923,-0.9999861717224121,0,0,0,-1,10.142.150.220,100.92.133.249,1,1,0.6,0
2015-10-05 21:20:54.519,72,7046C08F-1AFD-4AA7-9EF7-651803F23386,my_iOS_device_1,1444105248.10902,37.87145478548706,-122.2584692951743,87.9624,-1,-1,10,65,-9999,1444105254.480276,18.39068603515625,-15.39175415039062,-31.6087646484375,243.8936767578125,230.1824798583984,10,432180.395993375,-0.0013427734375,0.0009002685546875,-0.971282958984375,432180.3825854167,0.001175519305160976,0.02536581043467772,-0.02144670257451711,432180.3825854167,-0.1425421687953305,0.00572537435076147,0.001797549275400176,-8.728136890567839e-05,0.02393306978046894,0.01181119494140148,-0.00282616401091218,0.003628602949902415,0.001660461304709315,XArbitraryZVertical,0.00110034289090297,0.002791412436890825,-0.07120787508485256,0.9974569844299204,0.00572533393278718,-0.001797548262402415,-0.9999819993972778,0,0,0,-1,10.142.150.220,100.92.133.249,1,1,0.6,0
2015-10-05 21:20:54.572,73,7046C08F-1AFD-4AA7-9EF7-651803F23386,my_iOS_device_1,1444105248.10902,37.87145478548706,-122.2584692951743,87.9624,-1,-1,10,65,-9999,1444105254.531162,18.69552612304688,-15.56112670898438,-31.54267883300781,243.885986328125,230.1747894287109,10,432180.4449640417,0.016082763671875,-0.0033416748046875,-0.97509765625,432180.4303598333,-0.004243747197041266,-0.01052028525414002,-0.04389954740886616,432180.3825854167,-0.1425421687953305,0.00572537435076147,0.001797549275400176,-8.728136890567839e-05,0.02393306978046894,0.01181119494140148,-0.00282616401091218,0.003628602949902415,0.001660461304709315,XArbitraryZVertical,0.00110034289090297,0.002791412436890825,-0.07120787508485256,0.9974569844299204,0.00572533393278718,-0.001797548262402415,-0.9999819993972778,0,0,0,-1,10.142.150.220,100.92.133.249,1,1,0.6,0
2015-10-05 21:20:54.616,74,7046C08F-1AFD-4AA7-9EF7-651803F23386,my_iOS_device_1,1444105248.10902,37.87145478548706,-122.2584692951743,87.9624,-1,-1,10,65,-9999,1444105254.584648,18.64468383789062,-15.30712890625,-31.46005249023438,243.8853607177734,230.1741638183594,10,432180.4940555417,-0.0002593994140625,-0.0012054443359375,-0.988128662109375,432180.4781345417,-0.003244529156043536,-0.00339925881537714,-0.02968199561336914,432180.4781345417,-0.1422600032775879,0.006170711127218786,0.001825335275022322,-0.004408125765621662,-0.004808272235095501,0.003666434437036514,0.001245109830051661,-0.004354475531727076,0.009424486197531223,XArbitraryZVertical,0.001129631234787367,0.003012684541665085,-0.07106686005709689,0.9974663648799154,0.006170661654323339,-0.001825334271416068,-0.9999793171882629,0,0,0,-1,10.142.150.220,100.92.133.249,1,1,0.6,0
2015-10-05 21:20:54.668,75,7046C08F-1AFD-4AA7-9EF7-651803F23386,my_iOS_device_1,1444105248.10902,37.87145478548706,-122.2584692951743,87.9624,-1,-1,10,65,-9999,1444105254.637149,18.71240234375,-15.171630859375,-31.49311828613281,243.8865966796875,230.1753997802734,10,432180.5431361667,0.004150390625,-0.002777099609375,-0.9851837158203125,432180.5259090417,0.005033907092467776,-0.002248506908353901,-0.03552230788391291,432180.4781345417,-0.1422600032775879,0.006170711127218786,0.001825335275022322,-0.004408125765621662,-0.004808272235095501,0.003666434437036514,0.001245109830051661,-0.004354475531727076,0.009424486197531223,XArbitraryZVertical,0.001129631234787367,0.003012684541665085,-0.07106686005709689,0.9974663648799154,0.006170661654323339,-0.001825334271416068,-0.9999793171882629,0,0,0,-1,10.142.150.220,100.92.133.249,1,1,0.6,0
2015-10-05 21:20:54.714,76,7046C08F-1AFD-4AA7-9EF7-651803F23386,my_iOS_device_1,1444105254.696648,37.87142511784,-122.2584833014933,87.6582,-1,-1,10,65,-9999,1444105254.687676,18.50924682617188,-15.171630859375,-31.65835571289062,243.8897399902344,230.1785430908203,10,432180.5922332084,0.0104827880859375,-0.0027008056640625,-0.9853668212890625,432180.5736836667,0.01322232849613441,0.001259408879498472,-0.03306953651994993,432180.5736836667,-0.1423392796264355,0.005788223776135519,0.001903732152102364,0.01205845922231674,-0.0001506199478171766,0.0002782553783617914,0.002451565116643906,0.002361494582146406,0.01582005992531776,XArbitraryZVertical,0.001155251001603601,0.002819093636978562,-0.07110649674849726,0.9974640766595791,0.005788180977106094,-0.001903731026686728,-0.9999814629554749,0,0,0,-1,10.142.150.220,100.92.133.249,1,1,0.6,0
2015-10-05 21:20:54.769,77,7046C08F-1AFD-4AA7-9EF7-651803F23386,my_iOS_device_1,1444105254.696648,37.87142511784,-122.2584833014933,87.6582,-1,-1,10,65,-9999,1444105254.741858,18.69552612304688,-15.45953369140625,-31.67489624023438,243.8892669677734,230.1780700683594,10,432180.6413048333,0.006317138671875,-0.00115966796875,-0.986358642578125,432180.6214582917,0.001438905936969812,0.003787547702310693,-0.0332165430121223,432180.5736836667,-0.1423392796264355,0.005788223776135519,0.001903732152102364,0.01205845922231674,-0.0001506199478171766,0.0002782553783617914,0.002451565116643906,0.002361494582146406,0.01582005992531776,XArbitraryZVertical,0.001155251001603601,0.002819093636978562,-0.07110649674849726,0.9974640766595791,0.005788180977106094,-0.001903731026686728,-0.9999814629554749,0,0,0,-1,10.142.150.220,100.92.133.249,1,1,0.6,0
2015-10-05 21:20:54.813,78,7046C08F-1AFD-4AA7-9EF7-651803F23386,my_iOS_device_1,1444105254.696648,37.87142511784,-122.2584833014933,87.6582,-1,-1,10,65,-9999,1444105254.741858,18.69552612304688,-15.45953369140625,-31.67489624023438,243.8892669677734,230.1780700683594,10,432180.6903749584,0.0048065185546875,0.0017547607421875,-0.9890289306640625,432180.6692330834,0.003927097343430845,-0.01306626725625577,-0.03430337905298364,432180.6692330834,-0.1423158810482595,0.00582480505977311,0.001765176744095272,0.002844807226210833,-0.01445423066616058,-0.0008795050671324134,0.0006907398928888142,0.003733559511601925,0.01144082844257355,XArbitraryZVertical,0.0010874163394466,0.002842277086541722,-0.07109501175284878,0.997464905793949,0.005824762862175703,-0.001765175838954747,-0.9999814629554749,0,0,0,-1,10.142.150.220,100.92.133.249,1,1,0.6,0
2015-10-05 21:20:54.869,79,7046C08F-1AFD-4AA7-9EF7-651803F23386,my_iOS_device_1,1444105254.696648,37.87142511784,-122.2584833014933,87.6582,-1,-1,10,65,-9999,1444105254.816847,18.49227905273438,-15.120849609375,-31.44355773925781,243.8863830566406,230.1751861572266,10,432180.7394629584,0.0095367431640625,-0.003143310546875,-0.987823486328125,432180.7170075834,0.002674878998875587,0.001397626940073584,-0.03793779499261478,432180.6692330834,-0.1423158810482595,0.00582480505977311,0.001765176744095272,0.002844807226210833,-0.01445423066616058,-0.0008795050671324134,0.0006907398928888142,0.003733559511601925,0.01144082844257355,XArbitraryZVertical,0.0010874163394466,0.002842277086541722,-0.07109501175284878,0.997464905793949,0.005824762862175703,-0.001765175838954747,-0.9999814629554749,0,0,0,-1,10.142.150.220,100.92.133.249,1,1,0.6,0
2015-10-05 21:20:54.910,80,7046C08F-1AFD-4AA7-9EF7-651803F23386,my_iOS_device_1,1444105254.696648,37.87142511784,-122.2584833014933,87.6582,-1,-1,10,65,-9999,1444105254.868724,18.54306030273438,-14.96841430664062,-31.22872924804688,243.8994445800781,230.1882476806641,10,432180.7885384167,0.00933837890625,-0.005279541015625,-0.98858642578125,432180.764782375,0.002723348530715029,0.007472830018762342,-0.04863944151698919,432180.764782375,-0.1424840109415232,0.005887764607972073,0.001978985623235699,0.001642322284169495,0.006086370907723904,-0.01521619129925966,0.003542212536558509,0.001444926718249917,0.02096154354512691,XArbitraryZVertical,0.001196528697325864,0.002865975539790428,-0.07117850802311465,0.997458758294741,0.005887718871235847,-0.001978984335437417,-0.9999806880950928,0,0,0,-1,10.142.150.220,100.92.133.249,1,1,0.6,0
2015-10-05 21:20:54.971,81,7046C08F-1AFD-4AA7-9EF7-651803F23386,my_iOS_device_1,1444105254.696648,37.87142511784,-122.2584833014933,87.6582,-1,-1,10,65,-9999,1444105254.920473,18.62774658203125,-14.78216552734375,-31.11308288574219,243.9183502197266,230.2071533203125,10,432180.8376265834,0.003173828125,-0.0003509521484375,-0.99200439453125,432180.8125569167,0.0002407497625431631,0.002576874670760671,-0.02966628296293767,432180.8125569167,-0.1426099554269576,0.005793377711103446,0.002106968941018538,-0.0007571291062049568,0.001217097393237054,0.003833769587799907,-0.003336667316034436,-0.001341518945991993,0.0135613214224577,XArbitraryZVertical,0.001257175780589633,0.002814267650458844,-0.07124118694492571,0.997454356193469,0.00579333258792758,-0.002106967382133007,-0.9999809861183167,0,0,0,-1,10.142.150.220,100.92.133.249,1,1,0.6,0
2015-10-05 21:20:55.009,82,7046C08F-1AFD-4AA7-9EF7-651803F23386,my_iOS_device_1,1444105254.696648,37.87142511784,-122.2584833014933,87.6582,-1,-1,10,65,-9999,1444105254.973642,18.30596923828125,-14.7652587890625,-31.39401245117188,243.9345703125,230.2233734130859,10,432180.8867492917,0.0149688720703125,-0.0063934326171875,-0.9853668212890625,432180.860331625,0.004931908022717741,-0.001107608697363955,-0.02485128771207441,432180.860331625,-0.142481781978171,0.005444867052752554,0.002083866744291668,0.003933890257030725,-0.002468699589371681,0.008648446761071682,-0.0008214152185246348,-0.0004643525462597609,0.01652353256940842,XArbitraryZVertical,0.001233070637407703,0.002641357882706557,-0.07117751340246767,0.9974594048637674,0.005444828420877457,-0.002083865227177739,-0.999983012676239,0,0,0,-1,10.142.150.220,100.92.133.249,1,1,0.6,0
2015-10-05 21:20:55.086,83,7046C08F-1AFD-4AA7-9EF7-651803F23386,my_iOS_device_1,1444105254.696648,37.87142511784,-122.2584833014933,87.6582,-1,-1,10,65,-9999,1444105255.076587,18.20431518554688,-15.23941040039062,-31.62533569335938,243.935546875,230.2243499755859,10,432180.9357929167,0.0050811767578125,-0.001129150390625,-0.9861297607421875,432180.9081064167,0.0002833603399844309,0.003813646680993469,-0.03560246903272429,432180.9081064167,-0.1426584287838399,0.00591591899174445,0.002237948680325807,-0.0007129154400900006,0.002456143964082003,-0.002103043720126152,0.004795800428837538,0.001703889225609601,0.01121046580374241,XArbitraryZVertical,0.001326933460133895,0.002870684168343051,-0.07126508644536009,0.9974523977984781,0.005915869493037462,-0.002237946726381779,-0.9999799728393555,0,0,0,-1,10.142.150.220,100.92.133.249,1,1,0.6,0
2015-10-05 21:20:55.107,84,7046C08F-1AFD-4AA7-9EF7-651803F23386,my_iOS_device_1,1444105254.696648,37.87142511784,-122.2584833014933,87.6582,-1,-1,10,65,-9999,1444105255.076587,18.20431518554688,-15.23941040039062,-31.62533569335938,243.935546875,230.2243499755859,10,432180.9848767084,0.00848388671875,0.000244140625,-0.9865875244140625,432180.955881,0.001307345779119898,0.01457707854265772,-0.02733148963526521,432180.955881,-0.1425753173481509,0.005926245741919915,0.002121389345519457,0.0003097849548794329,0.01321883872151375,0.006167592015117407,-0.004873341415077448,-0.002944530220702291,0.01157686952501535,XArbitraryZVertical,0.001269050579613012,0.002880040813698728,-0.07122380645648665,0.99745539462644,0.005926197860389948,-0.002121387748047709,-0.9999802112579346,0,0,0,-1,10.142.150.220,100.92.133.249,1,1,0.6,0
2015-10-05 21:20:55.185,85,7046C08F-1AFD-4AA7-9EF7-651803F23386,my_iOS_device_1,1444105254.696648,37.87142511784,-122.2584833014933,87.6582,-1,-1,10,65,-9999,1444105255.128735,18.15347290039062,-15.1885986328125,-31.37747192382812,243.9251708984375,230.2139739990234,10,432181.0339687917,0.004608154296875,-0.0013275146484375,-0.9871063232421875,432181.0036556667,0.003916444699070528,-0.00461392658856228,-0.04027045779141519,432181.0036556667,-0.1430180292366903,0.005880781009134716,0.002165346720184437,0.002991948276758194,-0.00594354746863246,-0.006703434512019157,0.004830936435610056,0.0006699836812913418,0.01363698020577431,XArbitraryZVertical,0.00128998636210578,0.002855515271431866,-0.07144456009152828,0.9974396507062715,0.005880733486264944,-0.002165345009416342,-0.9999803900718689,0,0,0,-1,10.142.150.220,100.92.133.249,1,1,0.6,0
2015-10-05 21:20:55.207,86,7046C08F-1AFD-4AA7-9EF7-651803F23386,my_iOS_device_1,1444105254.696648,37.87142511784,-122.2584833014933,87.6582,-1,-1,10,65,-9999,1444105255.182266,18.37362670898438,-14.96847534179688,-31.55923461914062,243.923828125,230.2126312255859,10,432181.0830488334,0.0076141357421875,-0.0054931640625,-0.9820098876953125,432181.0514304167,0.0003869573063885133,-0.004576908649410179,-0.0403114704722024,432181.0514304167,-0.1429125499539509,0.005720199276659946,0.002026559320103644,-0.0005379412905313075,-0.005905936472117901,-0.006744775921106339,-0.002775209955871105,0.001461982727050781,0.008236590772867203,XArbitraryZVertical,0.0012148873580226,0.002780452276850437,-0.07139226187273917,0.9974437017087925,0.005720156244933605,-0.002026557922363281,-0.9999815821647644,0,0,0,-1,10.142.150.220,100.92.133.249,1,1,0.6,0
2015-10-05 21:20:55.278,87,7046C08F-1AFD-4AA7-9EF7-651803F23386,my_iOS_device_1,1444105254.696648,37.87142511784,-122.2584833014933,87.6582,-1,-1,10,65,-9999,1444105255.23539,18.54296875,-14.93460083007812,-31.32791137695312,243.9366302490234,230.2254333496094,10,432181.1321368334,0.0067901611328125,-0.000213623046875,-0.988555908203125,432181.0992052917,0.006390787667863148,-0.006974818894917524,-0.05209542566358502,432181.0992052917,-0.1428391604104124,0.006055428234721197,0.002222776120213749,0.005466144531965256,-0.008302793838083744,-0.01852904818952084,0.0103020453825593,-0.002293827245011926,0.01975458674132824,XArbitraryZVertical,0.001324603320497851,0.002940682076303093,-0.07135515251415314,0.9974457579360653,0.006055376492440701,-0.002222774317488074,-0.9999791979789734,0,0,0,-1,10.142.150.220,100.92.133.249,1,1,0.6,0
2015-10-05 21:20:55.304,88,7046C08F-1AFD-4AA7-9EF7-651803F23386,my_iOS_device_1,1444105254.696648,37.87142511784,-122.2584833014933,87.6582,-1,-1,10,65,-9999,1444105255.23539,18.54296875,-14.93460083007812,-31.32791137695312,243.9366302490234,230.2254333496094,10,432181.1812078333,0.0103302001953125,-0.0067138671875,-0.98760986328125,432181.146979875,0.003897536255330965,-0.003417900943007694,-0.03908961216407405,432181.146979875,-0.1428645761157883,0.006132384912242861,0.002322212351075929,0.003032033331692219,-0.00472267484292388,-0.005470328964293003,-0.003172124968841672,-0.0006685123662464321,0.0135740814730525,XArbitraryZVertical,0.00137697785135749,0.00297549664885417,-0.07136762079122655,0.9974446917269597,0.006132329814136028,-0.002322210231795907,-0.9999784827232361,0,0,0,-1,10.142.150.220,100.92.133.249,1,1,0.6,0
2015-10-05 21:20:55.369,89,7046C08F-1AFD-4AA7-9EF7-651803F23386,my_iOS_device_1,1444105254.696648,37.87142511784,-122.2584833014933,87.6582,-1,-1,10,65,-9999,1444105255.362568,18.57681274414062,-15.10394287109375,-30.96432495117188,243.9698638916016,230.2586669921875,10,432181.2302982084,0.0072174072265625,0.00262451171875,-0.9853515625,432181.1947548334,-0.0007997472753507952,-0.00457158232723002,-0.03913914696034952,432181.1947548334,-0.1429506069555723,0.00577347409745,0.002430289555595458,-0.00166455761063844,-0.005876039154827595,-0.00552017567679286,0.003717541927471757,-0.0004841415502596647,0.01850455068051815,XArbitraryZVertical,0.001418191166266215,0.002792581771712702,-0.07141061202491741,0.997442085893257,0.005773425102233887,-0.002430287189781666,-0.9999803900718689,0,0,0,-1,10.142.150.220,100.92.133.249,1,1,0.6,0
2015-10-05 21:20:55.401,90,7046C08F-1AFD-4AA7-9EF7-651803F23386,my_iOS_device_1,1444105254.696648,37.87142511784,-122.2584833014933,87.6582,-1,-1,10,65,-9999,1444105255.362568,18.57681274414062,-15.10394287109375,-30.96432495117188,243.9698638916016,230.2586669921875,10,432181.279351375,0.0078582763671875,-0.0049896240234375,-0.98931884765625,432181.2425294167,0.008612396649207248,-0.004670119287562952,-0.03902969103954727,432181.2425294167,-0.1431443742246003,0.005912554226942358,0.002368342852751328,0.007745909504592419,-0.005972830578684807,-0.005411075428128242,0.002571383491158485,0.002353081945329905,0.01681016013026237,XArbitraryZVertical,0.001392540441779279,0.002864021094711904,-0.07150724267964285,0.997434996608121,0.005912503227591515,-0.002368340734392405,-0.9999797344207764,0,0,0,-1,10.142.150.220,100.92.133.249,1,1,0.6,0
2015-10-05 21:20:55.466,91,7046C08F-1AFD-4AA7-9EF7-651803F23386,my_iOS_device_1,1444105254.696648,37.87142511784,-122.2584833014933,87.6582,-1,-1,10,65,-9999,1444105255.413701,18.52597045898438,-15.22247314453125,-30.94779968261719,243.9747009277344,230.2635040283203,10,432181.3284327917,0.0041656494140625,-0.0025177001953125,-0.98809814453125,432181.2903041667,0.00504748921402718,0.0001776328447082852,-0.0390912100607281,432181.2903041667,-0.1431001152035614,0.005959931489342515,0.002356218913439581,0.004181416239589453,-0.001123989000916481,-0.005472908727824688,0.003576863557100296,-0.00269444240257144,0.01629110984504223,XArbitraryZVertical,0.001388124020660522,0.002888113200054495,-0.07148515543801751,0.997436516509121,0.005959879606962204,-0.00235621677711606,-0.9999794363975525,0,0,0,-1,10.142.150.220,100.92.133.249,1,1,0.6,0
2015-10-05 21:20:55.500,92,7046C08F-1AFD-4AA7-9EF7-651803F23386,my_iOS_device_1,1444105254.696648,37.87142511784,-122.2584833014933,87.6582,-1,-1,10,65,-9999,1444105255.465513,18.18731689453125,-15.25634765625,-31.37744140625,243.9675903320312,230.2563934326172,10,432181.3776079167,0.0113525390625,-0.0079498291015625,-0.98834228515625,432181.3380789167,0.007271495040352352,0.01336054655670952,-0.03556172266804608,432181.3380789167,-0.1429468036929354,0.00598404004538868,0.002415604248984727,0.006463091354817152,0.01208341028541327,-0.001891832333058119,-0.001818337477743626,-0.0001020982963382266,0.01188103388994932,XArbitraryZVertical,0.001418380103386426,0.002898122517892358,-0.07140858809955858,0.9974419294522272,0.005983986891806126,-0.002415601862594485,-0.9999791979789734,0,0,0,-1,10.142.150.220,100.92.133.249,1,1,0.6,0
2015-10-05 21:20:55.567,93,7046C08F-1AFD-4AA7-9EF7-651803F23386,my_iOS_device_1,1444105254.696648,37.87142511784,-122.2584833014933,87.6582,-1,-1,10,65,-9999,1444105255.518212,18.32275390625,-15.35797119140625,-31.17915344238281,243.9573364257812,230.2461395263672,10,432181.4265750417,0.005126953125,-0.0025482177734375,-0.98858642578125,432181.3858538333,0.00261282734547674,0.001356347943177356,-0.03082023066326901,432181.3858538333,-0.1429814549780593,0.006106616812981534,0.002517109601540893,0.001804729574359953,8.080041880020872e-05,0.002849342534318566,0.005245979409664869,-0.00543272215873003,0.01163590140640736,XArbitraryZVertical,0.001473430635289716,0.002955604038788483,-0.07142562330579139,0.9974404612518525,0.006106559652835131,-0.00251710694283247,-0.9999781847000122,0,0,0,-1,10.142.150.220,100.92.133.249,1,1,0.6,0
2015-10-05 21:20:55.598,94,7046C08F-1AFD-4AA7-9EF7-651803F23386,my_iOS_device_1,1444105254.696648,37.87142511784,-122.2584833014933,87.6582,-1,-1,10,65,-9999,1444105255.568482,18.66146850585938,-15.15475463867188,-31.04695129394531,243.960205078125,230.2490081787109,10,432181.475656875,0.00640869140625,-0.00592041015625,-0.98712158203125,432181.4336285,-0.005420065450529266,-0.01050803471312565,-0.04391312953042557,432181.4336285,-0.1431429832810597,0.006066312714397564,0.002355976251135557,-0.006227708421647549,-0.01178207900375128,-0.01024387404322624,-0.0009393055224791169,-0.0001922437077155337,0.01139239873737097,XArbitraryZVertical,0.001391868378822029,0.002941146296761355,-0.07150646095222014,0.9974348291507398,0.006066258531063795,-0.002355974167585373,-0.9999788403511047,0,0,0,-1,10.142.150.220,100.92.133.249,1,1,0.6,0
2015-10-05 21:20:55.639,95,7046C08F-1AFD-4AA7-9EF7-651803F23386,my_iOS_device_1,1444105254.696648,37.87142511784,-122.2584833014933,87.6582,-1,-1,10,65,-9999,1444105255.621479,18.62765502929688,-15.05313110351562,-31.14608764648438,243.9734039306641,230.26220703125,10,432181.5247296667,0.004852294921875,-0.000640869140625,-0.9861297607421875,432181.4814034583,0.0003502056833454198,-0.0009757822234050329,-0.03914074485700357,432181.4814034583,-0.14325997404362,0.005994011974801251,0.002176861578255723,-0.0003598880721256137,-0.002237841719761491,-0.005376030225306749,0.0004147295258007944,-0.003743550274521112,0.01285808440297842,XArbitraryZVertical,0.001300126123320883,0.002911417162289378,-0.07156513141480038,0.9974308323326245,0.005993961822241545,-0.002176859881728888,-0.9999796748161316,0,0,0,-1,10.142.150.220,100.92.133.249,1,1,0.6,0
2015-10-05 21:20:55.697,96,7046C08F-1AFD-4AA7-9EF7-651803F23386,my_iOS_device_1,1444105254.696648,37.87142511784,-122.2584833014933,87.6582,-1,-1,10,65,-9999,1444105255.674488,18.71231079101562,-15.0023193359375,-31.427001953125,243.9857788085938,230.2745819091797,10,432181.57388225,0.0080413818359375,-0.001678466796875,-0.9841766357421875,432181.576953125,-0.004390221056995624,-0.003366235617860157,-0.03325435989960143,432181.529178125,-0.143120120452982,0.005999520673853317,0.002136614018147548,-0.0003840736171696335,-0.00467015104368329,-0.0006213222513906658,-0.001147176022641361,0.001495743286795914,0.01384995970875025,XArbitraryZVertical,0.001280047287292175,0.002915694243525968,-0.0714954422809962,0.9974358435203062,0.005999471060931683,-0.002136612311005592,-0.9999797344207764,0,0,0,-1,10.142.150.220,100.92.133.249,1,1,0.6,0
2015-10-05 21:20:55.739,97,7046C08F-1AFD-4AA7-9EF7-651803F23386,my_iOS_device_1,1444105254.696648,37.87142511784,-122.2584833014933,87.6582,-1,-1,10,65,-9999,1444105255.72573,18.62765502929688,-15.1885986328125,-31.37744140625,243.9921264648438,230.2809295654297,10,432181.6229008751,0.0065155029296875,1.52587890625e-05,-0.979278564453125,432181.576953125,-0.004390221056995624,-0.003366235617860157,-0.03325435989960143,432181.576953125,-0.1428168449279091,0.006137976859259943,0.002297285612800152,-0.005100295413285494,-0.004627803806215525,0.0005096744280308485,0.001903459662571549,0.0006188168190419674,0.01580188795924187,XArbitraryZVertical,0.001364674778107614,0.00297920761672026,-0.07134385149015897,0.9974463979779946,0.006137921940535307,-0.002297283615916967,-0.9999785423278809,0,0,0,-1,10.142.150.220,100.92.133.249,1,1,0.6,0
2015-10-05 21:20:55.794,98,7046C08F-1AFD-4AA7-9EF7-651803F23386,my_iOS_device_1,1444105254.696648,37.87142511784,-122.2584833014933,87.6582,-1,-1,10,65,-9999,1444105255.776795,18.69540405273438,-15.25634765625,-31.47659301757812,243.9984130859375,230.2872161865234,10,432181.6720117501,0.003814697265625,0.0029449462890625,-0.984649658203125,432181.6725027917,0.008370847938337062,0.009672068446949776,-0.02367044208473328,432181.6247278334,-0.1427847624600899,0.006353679126059843,0.00228519503233688,-0.00634462758898735,-0.001033958047628403,0.005225537810474634,0.0001618831447558478,0.002300451742485166,0.02069864049553871,XArbitraryZVertical,0.00136628991462584,0.003087236578432262,-0.07132772326855689,0.9974472207167161,0.00635361997410655,-0.002285192953422666,-0.9999772310256958,0,0,0,-1,10.142.150.220,100.92.133.249,1,1,0.6,0
2015-10-05 21:20:55.840,99,7046C08F-1AFD-4AA7-9EF7-651803F23386,my_iOS_device_1,1444105254.696648,37.87142511784,-122.2584833014933,87.6582,-1,-1,10,65,-9999,1444105255.828449,18.62765502929688,-15.15472412109375,-31.21220397949219,244.0022277832031,230.2910308837891,10,432181.7210529167,0.004119873046875,-0.0013275146484375,-0.9856719970703125,432181.6725027917,0.008370847938337062,0.009672068446949776,-0.02367044208473328,432181.6725027917,-0.1427742273705289,0.006187296052178007,0.002055893474144547,0.007738560903817415,0.00842428021132946,0.01017172168940306,-0.002372546121478081,0.005000838544219732,0.01532908715307713,XArbitraryZVertical,0.001245982097934522,0.003012442544596123,-0.07132294524518233,0.9974479486169089,0.006187243387103081,-0.002055892022326589,-0.9999787211418152,0,0,0,-1,10.142.150.220,100.92.133.249,1,1,0.6,0
2015-10-05 21:20:55.892,100,7046C08F-1AFD-4AA7-9EF7-651803F23386,my_iOS_device_1,1444105254.696648,37.87142511784,-122.2584833014933,87.6582,-1,-1,10,65,-9999,1444105255.879893,18.44137573242188,-15.10391235351562,-31.22872924804688,244.002685546875,230.2914886474609,10,432181.770137125,0.01995849609375,-0.0007781982421875,-0.98358154296875,432181.7680525,0.0005083974520961265,-0.006913299873736694,-0.05216360258749105,432181.7202774167,-0.1424419020418087,0.006052555055352858,0.002155517879904192,0.0007896387833170593,-0.003515763208270073,0.007768472656607628,-0.001871595857664943,-0.002528931945562363,0.01600108854472637,XArbitraryZVertical,0.001290373281634486,0.002941905354874947,-0.07115713530477687,0.9974599451731858,0.006052503827959299,-0.002155516296625137,-0.9999793767929077,0,0,0,-1,10.142.150.220,100.92.133.249,1,1,0.6,0
2015-10-05 21:20:55.942,101,7046C08F-1AFD-4AA7-9EF7-651803F23386,my_iOS_device_1,1444105254.696648,37.87142511784,-122.2584833014933,87.6582,-1,-1,10,65,-9999,1444105255.931491,18.64459228515625,-15.2393798828125,-31.03044128417969,244.00927734375,230.2980804443359,10,432181.8192321667,0.004791259765625,0.0024566650390625,-0.9848785400390625,432181.7680525,0.0005083974520961265,-0.006913299873736694,-0.05216360258749105,432181.7680525,-0.1428272076286853,0.00616434675420856,0.002192699769282457,-0.0001234752999152988,-0.008160996250808239,-0.01832204312086105,0.007446547038853168,-0.0001266379258595407,0.02486568130552769,XArbitraryZVertical,0.001313471606882923,0.002996083232042602,-0.07134916656188807,0.9974460359881777,0.006164292804896832,-0.002192697953432798,-0.9999786019325256,0,0,0,-1,10.142.150.220,100.92.133.249,1,1,0.6,0
2015-10-05 21:20:55.991,102,7046C08F-1AFD-4AA7-9EF7-651803F23386,my_iOS_device_1,1444105254.696648,37.87142511784,-122.2584833014933,87.6582,-1,-1,10,65,-9999,1444105255.983747,18.94937133789062,-15.34097290039062,-31.1956787109375,244.0133361816406,230.3021392822266,10,432181.868331375,0.0028076171875,0.003448486328125,-0.983184814453125,432181.86360225,-0.0009108010928070995,0.006231264318567402,-0.03562670379864401,432181.815827125,-0.1431492752947635,0.006344092125169944,0.002131590538879678,0.003349937964230776,-0.004640405997633934,-0.006356512196362019,0.0004766435595229268,-0.0007218046230264008,0.01433612499386072,XArbitraryZVertical,0.001289904626584168,0.003087698948696667,-0.07150976885161438,0.9974342861662848,0.006344035267829895,-0.00213158898986876,-0.9999775886535645,0,0,0,-1,10.142.150.220,100.92.133.249,1,1,0.6,0
2015-10-05 21:20:56.042,103,7046C08F-1AFD-4AA7-9EF7-651803F23386,my_iOS_device_1,1444105254.696648,37.87142511784,-122.2584833014933,87.6582,-1,-1,10,65,-9999,1444105256.036069,18.89859008789062,-15.4256591796875,-31.11308288574219,244.0184173583984,230.3072204589844,10,432181.9174267917,0.0067596435546875,1.52587890625e-05,-0.983184814453125,432181.86360225,-0.0009108010928070995,0.006231264318567402,-0.03562670379864401,432181.86360225,-0.143341706132503,0.00605932378145433,0.001977294382120588,-0.00146982294972986,0.004999467171728611,-0.001707817078568041,-0.006364450789988041,0.003152219811454415,0.009424878284335136,XArbitraryZVertical,0.00120305655972517,0.002951081667668005,-0.07160615886352294,0.9974278930252142,0.006059275008738041,-0.001977293053641915,-0.9999796748161316,0,0,0,-1,10.142.150.220,100.92.133.249,1,1,0.6,0
2015-10-05 21:20:56.089,104,7046C08F-1AFD-4AA7-9EF7-651803F23386,my_iOS_device_1,1444105254.696648,37.87142511784,-122.2584833014933,87.6582,-1,-1,10,65,-9999,1444105256.036069,18.89859008789062,-15.4256591796875,-31.11308288574219,244.0184173583984,230.3072204589844,10,432181.966541875,-0.0008392333984375,0.0001678466796875,-0.968353271484375,432181.9591518334,0.003569967441251219,0.02536900622798581,-0.02616422612948347,432181.9113769167,-0.1431373884848898,0.005904587767662659,0.00173747111802198,-0.001539271324872971,0.0001210524787893519,0.01017459947615862,0.003647457342594862,-0.001146440859884024,0.002895487239584327,XArbitraryZVertical,0.001077618860207665,0.002882609854143889,-0.07150471634098897,0.9974355141256086,0.005904544610530138,-0.001737470272928476,-0.9999810457229614,0,0,0,-1,10.142.150.220,100.92.133.249,1,1,0.6,0
2015-10-05 21:20:56.169,105,7046C08F-1AFD-4AA7-9EF7-651803F23386,my_iOS_device_1,1444105254.696648,37.87142511784,-122.2584833014933,87.6582,-1,-1,10,65,-9999,1444105256.138726,18.67843627929688,-15.20550537109375,-31.42704772949219,244.0258026123047,230.3146057128906,10,432182.0156317917,0.021148681640625,-0.01300048828125,-0.9765777587890625,432182.0069267083,-0.004366252607184911,-0.00939350179692749,-0.03085591702187607,432181.9591518334,-0.143196736979483,0.005491060566248733,0.001664653600298008,0.003008305793628097,0.02413531765341759,0.007753963116556406,-0.009336240589618683,0.002748026745393872,-0.01522947382181883,XArbitraryZVertical,0.001026598362608294,0.0026789495507601,-0.07153463767891277,0.9974339902656492,0.005491025280207396,-0.001664652838371694,-0.999983549118042,0,0,0,-1,10.142.150.220,100.92.133.249,1,1,0.6,0
2015-10-05 21:20:56.187,106,7046C08F-1AFD-4AA7-9EF7-651803F23386,my_iOS_device_1,1444105254.696648,37.87142511784,-122.2584833014933,87.6582,-1,-1,10,65,-9999,1444105256.138726,18.67843627929688,-15.20550537109375,-31.42704772949219,244.0258026123047,230.3146057128906,10,432182.0647427083,-0.0099029541015625,0.007110595703125,-0.992279052734375,432182.0547016667,0.007363374097960086,0.003753459240357678,-0.03789305388630145,432182.0069267083,-0.1430487750526707,0.006399459021956178,0.002161247502765024,-0.004868005402386189,-0.01060576550662518,0.003132899990305305,0.02384351938962936,-0.008382577449083328,0.001274185138754547,XArbitraryZVertical,0.001306518197604546,0.003114316542718672,-0.07145956337266164,0.9974377799368048,0.006399400532245636,-0.002161245793104172,-0.999977171421051,0,0,0,-1,10.142.150.220,100.92.133.249,1,1,0.6,0
2015-10-05 21:20:56.238,107,7046C08F-1AFD-4AA7-9EF7-651803F23386,my_iOS_device_1,1444105254.696648,37.87142511784,-122.2584833014933,87.6582,-1,-1,10,65,-9999,1444105256.190329,18.45831298828125,-15.01922607421875,-31.542724609375,244.030029296875,230.3188323974609,10,432182.1138324167,0.020751953125,-0.005126953125,-0.974090576171875,432182.1024765417,-0.003262638651456075,0.007465373167710121,-0.03684563262957329,432182.0547016667,-0.1431558281015831,0.006066683453293848,0.002113551778707309,0.006862064823508263,0.002541442168876529,-0.003904512384906411,-0.01212437171489,0.01442739274352789,-0.005635870154947042,XArbitraryZVertical,0.001270999325979013,0.002949991328284248,-0.0715132430504932,0.9974344781389302,0.006066632457077503,-0.002113550202921033,-0.9999793767929077,0,0,0,-1,10.142.150.220,100.92.133.249,1,1,0.6,0
2015-10-05 21:20:56.285,108,7046C08F-1AFD-4AA7-9EF7-651803F23386,my_iOS_device_1,1444105254.696648,37.87142511784,-122.2584833014933,87.6582,-1,-1,10,65,-9999,1444105256.2422,18.66146850585938,-15.32406616210938,-31.4105224609375,244.0283660888672,230.3171691894531,10,432182.1629344167,0.0026397705078125,0.0020751953125,-0.992706298828125,432182.1502515,-0.001920139145947131,-0.009355951225557371,-0.04150483295666691,432182.1024765417,-0.1429860661019264,0.005581822695065798,0.002008098216060194,-0.003765247762203217,0.006248125340789557,-0.00285746599547565,0.00218494120053947,-0.008962972089648247,0.007916975766420364,XArbitraryZVertical,0.001200840583245623,0.002712055749328287,-0.0714290361868362,0.9974412742236647,0.005581782665103674,-0.002008096780627966,-0.9999824166297913,0,0,0,-1,10.142.150.220,100.92.133.249,1,1,0.6,0
2015-10-05 21:20:56.324,109,7046C08F-1AFD-4AA7-9EF7-651803F23386,my_iOS_device_1,1444105254.696648,37.87142511784,-122.2584833014933,87.6582,-1,-1,10,65,-9999,1444105256.294491,18.57681274414062,-15.44259643554688,-30.96435546875,244.0237274169922,230.3125305175781,10,432182.2120309167,0.0034942626953125,-0.005126953125,-0.9893646240234375,432182.1980264584,0.003842675136875333,0.002588059947339004,-0.03792900656101752,432182.1502515,-0.1432518517992331,0.006147933084851782,0.001976170746668165,-0.002375106327235699,-0.01055066101253033,-0.007457627449184656,0.004441717173904181,0.006675876677036285,0.01566518470644951,XArbitraryZVertical,0.00120553409999401,0.002995366757391587,-0.07156129557906887,0.9974309777827081,0.006147882435470819,-0.001976169412955642,-0.9999791383743286,0,0,0,-1,10.142.150.220,100.92.133.249,1,1,0.6,0
2015-10-05 21:20:56.383,110,7046C08F-1AFD-4AA7-9EF7-651803F23386,my_iOS_device_1,1444105254.696648,37.87142511784,-122.2584833014933,87.6582,-1,-1,10,65,-9999,1444105256.346138,18.81393432617188,-15.6119384765625,-31.06350708007812,244.014892578125,230.3036956787109,10,432182.2611055417,0.01177978515625,0.0048828125,-0.9782257080078125,432182.245801375,-0.002005892933047682,-0.01183002787824098,-0.02963192818487565,432182.245801375,-0.1431588053806398,0.005711406984193041,0.002158106883039867,-0.002459702081978321,-0.01302618719637394,0.004414592869579792,0.004817201755940914,-0.003884375328198075,0.01775784976780415,XArbitraryZVertical,0.001280520345101983,0.002771213596854846,-0.07151488736482049,0.9974348607944509,0.005711362697184086,-0.002158105140551925,-0.9999813437461853,0,0,0,-1,10.142.150.220,100.92.133.249,1,1,0.6,0
2015-10-05 21:20:56.423,111,7046C08F-1AFD-4AA7-9EF7-651803F23386,my_iOS_device_1,1444105254.696648,37.87142511784,-122.2584833014933,87.6582,-1,-1,10,65,-9999,1444105256.397848,18.59375,-15.45956420898438,-31.17916870117188,244.0097351074219,230.2985382080078,10,432182.3101940834,0.0067291259765625,-0.009246826171875,-0.9869232177734375,432182.2935762917,0.007307447715068422,9.081379317170202e-05,-0.02838769932359063,432182.245801375,-0.1431588053806398,0.005711406984193041,0.002158106883039867,-0.002459702081978321,-0.01302618719637394,0.004414592869579792,0.004817201755940914,-0.003884375328198075,0.01775784976780415,XArbitraryZVertical,0.001280520345101983,0.002771213596854846,-0.07151488736482049,0.9974348607944509,0.005711362697184086,-0.002158105140551925,-0.9999813437461853,0,0,0,-1,10.142.150.220,100.92.133.249,1,1,0.6,0
2015-10-05 21:20:56.482,112,7046C08F-1AFD-4AA7-9EF7-651803F23386,my_iOS_device_1,1444105254.696648,37.87142511784,-122.2584833014933,87.6582,-1,-1,10,65,-9999,1444105256.449417,18.54296875,-15.47650146484375,-31.42704772949219,243.999755859375,230.2885589599609,10,432182.359288875,0.0045166015625,0.0034027099609375,-0.9856109619140625,432182.3413513334,0.003695934960811967,0.009742109583618862,-0.02728355273564378,432182.3413513334,-0.1427568832864194,0.005771629928602229,0.00207877667973812,0.0032888890709728,0.008568639867007732,0.006821419578045607,-0.004001565743237734,-0.003002401674166322,0.01328684762120247,XArbitraryZVertical,0.001242546891018432,0.002804334475769314,-0.07131451896492223,0.9974491621983422,0.005771585274487734,-0.002078775083646178,-0.999981164932251,0,0,0,-1,10.142.150.220,100.92.133.249,1,1,0.6,0
2015-10-05 21:20:56.520,113,7046C08F-1AFD-4AA7-9EF7-651803F23386,my_iOS_device_1,1444105254.696648,37.87142511784,-122.2584833014933,87.6582,-1,-1,10,65,-9999,1444105256.501314,18.74618530273438,-15.2733154296875,-31.65840148925781,244.0049438476562,230.2937469482422,10,432182.408389125,0.0083770751953125,-0.007415771484375,-0.983245849609375,432182.3891262917,0.009530121960848554,0.01206491868638597,-0.02366697997531617,432182.3413513334,-0.1427568832864194,0.005771629928602229,0.00207877667973812,0.0032888890709728,0.008568639867007732,0.006821419578045607,-0.004001565743237734,-0.003002401674166322,0.01328684762120247,XArbitraryZVertical,0.001242546891018432,0.002804334475769314,-0.07131451896492223,0.9974491621983422,0.005771585274487734,-0.002078775083646178,-0.999981164932251,0,0,0,-1,10.142.150.220,100.92.133.249,1,1,0.6,0
2015-10-05 21:20:56.581,114,7046C08F-1AFD-4AA7-9EF7-651803F23386,my_iOS_device_1,1444105254.696648,37.87142511784,-122.2584833014933,87.6582,-1,-1,10,65,-9999,1444105256.552717,18.61068725585938,-15.1378173828125,-31.52621459960938,244.0081024169922,230.2969055175781,10,432182.4575671667,0.005279541015625,0.0019989013671875,-0.987335205078125,432182.43690125,0.002622947357619042,0.001363272162011562,-0.03200666892889931,432182.43690125,-0.1429237762753058,0.005975443180837977,0.002070911482219498,0.002215404529124498,0.0001914945314638317,0.002097683725878596,0.003317207796499133,-0.001087659387849271,0.01508620381355286,XArbitraryZVertical,0.001246134255119294,0.002906157639688125,-0.0713976373449603,0.9974429200604666,0.005975394975394011,-0.002070910064503551,-0.9999800324440002,0,0,0,-1,10.142.150.220,100.92.133.249,1,1,0.6,0
2015-10-05 21:20:56.620,115,7046C08F-1AFD-4AA7-9EF7-651803F23386,my_iOS_device_1,1444105254.696648,37.87142511784,-122.2584833014933,87.6582,-1,-1,10,65,-9999,1444105256.605252,18.64459228515625,-15.40878295898438,-31.19572448730469,244.0079650878906,230.2967681884766,10,432182.5067559167,0.0083770751953125,-0.0066680908203125,-0.9868927001953125,432182.4846763751,-0.001002680150414833,0.007379086748391554,-0.02614185557632681,432182.43690125,-0.1429237762753058,0.005975443180837977,0.002070911482219498,0.002215404529124498,0.0001914945314638317,0.002097683725878596,0.003317207796499133,-0.001087659387849271,0.01508620381355286,XArbitraryZVertical,0.001246134255119294,0.002906157639688125,-0.0713976373449603,0.9974429200604666,0.005975394975394011,-0.002070910064503551,-0.9999800324440002,0,0,0,-1,10.142.150.220,100.92.133.249,1,1,0.6,0
2015-10-05 21:20:56.678,116,7046C08F-1AFD-4AA7-9EF7-651803F23386,my_iOS_device_1,1444105254.696648,37.87142511784,-122.2584833014933,87.6582,-1,-1,10,65,-9999,1444105256.657068,18.84780883789062,-15.3748779296875,-31.22879028320312,244.0091094970703,230.2979125976562,10,432182.555673625,0.006103515625,-0.0023193359375,-0.98760986328125,432182.53245125,0.001394431146765489,0.009800965443709612,-0.03324237567469607,432182.53245125,-0.1429201174442162,0.005989449407431898,0.002211272075199043,0.0009899376891553402,0.008665214292705059,0.0008699261234141886,0.001929912599734962,-0.007829013280570507,0.02257788553833961,XArbitraryZVertical,0.001316629744875719,0.00290813410601292,-0.07139558888059633,0.9974429703649885,0.005989398807287216,-0.00221127038821578,-0.9999796152114868,0,0,0,-1,10.142.150.220,100.92.133.249,1,1,0.6,0
2015-10-05 21:20:56.718,117,7046C08F-1AFD-4AA7-9EF7-651803F23386,my_iOS_device_1,1444105254.696648,37.87142511784,-122.2584833014933,87.6582,-1,-1,10,65,-9999,1444105256.708821,18.67843627929688,-15.34100341796875,-31.16267395019531,244.0110015869141,230.2998046875,10,432182.6048737917,0.00823974609375,-0.0009765625,-0.980010986328125,432182.580226375,0.002553438853167974,0.0037340181644001,-0.02608539656121713,432182.580226375,-0.1429213798023396,0.006064748868117657,0.002137786334537695,0.002148234518244863,0.002598726889118552,0.008026529103517532,-0.001715942984446883,0.0007950112922117114,0.01627571135759354,XArbitraryZVertical,0.001282670732558222,0.002948310274014029,-0.07139628281017038,0.9974428469958629,0.00606469763442874,-0.00213778461329639,-0.9999793171882629,0,0,0,-1,10.142.150.220,100.92.133.249,1,1,0.6,0
2015-10-05 21:20:56.776,118,7046C08F-1AFD-4AA7-9EF7-651803F23386,my_iOS_device_1,1444105254.696648,37.87142511784,-122.2584833014933,87.6582,-1,-1,10,65,-9999,1444105256.76043,18.78009033203125,-15.40875244140625,-31.52619934082031,244.0127716064453,230.3015747070312,10,432182.6538460417,0.01007080078125,-0.006500244140625,-0.98223876953125,432182.62800125,0.007347128815310603,-0.001091097098605464,-0.03194142148219237,432182.62800125,-0.142965720231204,0.006144912541804584,0.002235960951486554,0.006941372528672218,-0.00222520180977881,0.002170170191675425,0.004292153287678957,0.002647946355864406,0.01072080805897713,XArbitraryZVertical,0.001334560352960383,0.002984755052308232,-0.07141819057604035,0.9974411021412685,0.006144858431071043,-0.002235959051176906,-0.9999786019325256,0,0,0,-1,10.142.150.220,100.92.133.249,1,1,0.6,0
2015-10-05 21:20:56.816,119,7046C08F-1AFD-4AA7-9EF7-651803F23386,my_iOS_device_1,1444105254.696648,37.87142511784,-122.2584833014933,87.6582,-1,-1,10,65,-9999,1444105256.811753,18.59375,-15.62890625,-31.08003234863281,244.0010833740234,230.2898864746094,10,432182.7029397917,0.00238037109375,0.0005950927734375,-0.98565673828125,432182.6757764167,-0.00671382910808976,-0.004530835962551808,-0.03564880803569168,432182.6757764167,-0.1429351796590899,0.006146395930933209,0.002374889004809832,-0.00711801229044795,-0.005629191640764475,-0.001530039124190807,-0.003186134854331613,-0.002034903271123767,0.01648830063641071,XArbitraryZVertical,0.001403854047474537,0.002980554808221322,-0.07140273971799727,0.9974421257635023,0.006146339699625969,-0.002374886767938733,-0.9999783039093018,0,0,0,-1,10.142.150.220,100.92.133.249,1,1,0.6,0
2015-10-05 21:20:56.875,120,7046C08F-1AFD-4AA7-9EF7-651803F23386,my_iOS_device_1,1444105254.696648,37.87142511784,-122.2584833014933,87.6582,-1,-1,10,65,-9999,1444105256.864352,18.50909423828125,-15.47647094726562,-31.03044128417969,243.9935607910156,230.2823638916016,10,432182.7520313333,0.008056640625,-0.0031280517578125,-0.9829559326171875,432182.7235512917,-0.00562725938333743,-0.002185922622737039,-0.02734160964740751,432182.7235512917,-0.1429726894601421,0.005823367731686725,0.002240849417429911,-0.006032591685652733,-0.003285491373389959,0.00677681528031826,-0.002466386649757624,0.004041384439915419,0.01116522587835789,XArbitraryZVertical,0.00132552608123619,0.002824214811499242,-0.07142187261837438,0.9974413180247715,0.005823320243507624,-0.002240847563371062,-0.9999805092811584,0,0,0,-1,10.142.150.220,100.92.133.249,1,1,0.6,0
2015-10-05 21:20:56.914,121,7046C08F-1AFD-4AA7-9EF7-651803F23386,my_iOS_device_1,1444105254.696648,37.87142511784,-122.2584833014933,87.6582,-1,-1,10,65,-9999,1444105256.864352,18.50909423828125,-15.47647094726562,-31.03044128417969,243.9935607910156,230.2823638916016,10,432182.8012144167,0.0058441162109375,-0.0028228759765625,-0.98248291015625,432182.7713265,0.003848534091273507,-0.001033572819059752,-0.03554095001154346,432182.7713265,-0.1427904387946997,0.006058900517369839,0.002514042332213345,0.003443239256739616,-0.002132630674168468,-0.001422813278622925,0.002714959438890219,-0.001346434000879526,0.02384323067963123,XArbitraryZVertical,0.001469916814796369,0.002932056910846974,-0.07133039924326853,0.9974473502549536,0.006058844272047281,-0.002514039631932974,-0.9999784827232361,0,0,0,-1,10.142.150.220,100.92.133.249,1,1,0.6,0
2015-10-05 21:20:56.972,122,7046C08F-1AFD-4AA7-9EF7-651803F23386,my_iOS_device_1,1444105254.696648,37.87142511784,-122.2584833014933,87.6582,-1,-1,10,65,-9999,1444105256.968117,18.94937133789062,-15.34103393554688,-30.89826965332031,243.9933929443359,230.2821960449219,10,432182.8501927917,0.01068115234375,0.0009002685546875,-0.9894866943359375,432182.819101375,0.001479119669430009,0.002605636810533527,-0.03677026517072404,432182.819101375,-0.1429225297212497,0.005710049984051051,0.002383144487336385,0.001073575462214649,0.001507376437075436,-0.002652458613738418,0.003582599805667996,-0.001950353849679232,0.01897804997861385,XArbitraryZVertical,0.001392375576074744,0.002762653870153686,-0.07139672340052941,0.9974431998472494,0.005710002966225147,-0.002383142244070768,-0.9999808669090271,0,0,0,-1,10.142.150.220,100.92.133.249,1,1,0.6,0
2015-10-05 21:20:57.012,123,7046C08F-1AFD-4AA7-9EF7-651803F23386,my_iOS_device_1,1444105254.696648,37.87142511784,-122.2584833014933,87.6582,-1,-1,10,65,-9999,1444105256.968117,18.94937133789062,-15.34103393554688,-30.89826965332031,243.9933929443359,230.2821960449219,10,432182.8992844584,-0.00067138671875,-0.004791259765625,-0.9857177734375,432182.866876625,-0.002057558258195219,-0.003404585137557298,-0.03085431912522202,432182.866876625,-0.1427789922292109,0.005747835607233819,0.001833917030923115,-0.00246633286587894,-0.004462923388928175,0.003270648885518312,0.001454354147426784,0.005434990394860506,0.01340953446924686,XArbitraryZVertical,0.001119611929652711,0.002801187020521729,-0.07132591951041449,0.9974485014407506,0.005747794173657894,-0.001833916059695184,-0.9999818205833435,0,0,0,-1,10.142.150.220,100.92.133.249,1,1,0.6,0
2015-10-05 21:20:57.072,124,7046C08F-1AFD-4AA7-9EF7-651803F23386,my_iOS_device_1,1444105254.696648,37.87142511784,-122.2584833014933,87.6582,-1,-1,10,65,-9999,1444105257.020109,18.98324584960938,-15.20553588867188,-30.53471374511719,244.0066833496094,230.2954864501953,10,432182.9485048334,0.008819580078125,-0.0057830810546875,-0.9798126220703125,432182.9146514584,0.002683933746581856,0.0001952097079028082,-0.03793246867043462,432182.9146514584,-0.1429230498160149,0.005148010491379927,0.001917299207193846,0.002275719773024321,-0.0008655095589347184,-0.003807825967669487,-0.003667875658720732,-0.0007835076539777219,0.01187150739133358,XArbitraryZVertical,0.00113998507391824,0.002498983594754608,-0.07139798714188329,0.9974441252256259,0.005147978197783232,-0.001917298068292439,-0.9999849200248718,0,0,0,-1,10.142.150.220,100.92.133.249,1,1,0.6,0
2015-10-05 21:20:57.111,125,7046C08F-1AFD-4AA7-9EF7-651803F23386,my_iOS_device_1,1444105254.696648,37.87142511784,-122.2584833014933,87.6582,-1,-1,10,65,-9999,1444105257.0724,18.69537353515625,-15.05313110351562,-30.55123901367188,244.0181884765625,230.3069915771484,10,432182.9974620417,0.0029449462890625,-0.00250244140625,-0.9842071533203125,432182.9624267084,0.003887149927079656,-0.0034248251618419,-0.03790344021455276,432182.9624267084,-0.1431249557316567,0.005413830456346961,0.002195586711757251,0.003479667706415057,-0.004484257195144892,-0.00377915077842772,0.005694607272744179,0.004484403412789106,0.02221499010920525,XArbitraryZVertical,0.001288527230319838,0.002621488477811444,-0.07149814361679119,0.9974364555975946,0.005413791164755821,-0.002195585053414106,-0.9999829530715942,0,0,0,-1,10.142.150.220,100.92.133.249,1,1,0.6,0
2015-10-05 21:20:57.169,126,7046C08F-1AFD-4AA7-9EF7-651803F23386,my_iOS_device_1,1444105254.696648,37.87142511784,-122.2584833014933,87.6582,-1,-1,10,65,-9999,1444105257.123869,18.52597045898438,-15.120849609375,-30.71647644042969,244.0284729003906,230.3172760009766,10,432183.04665125,0.0072479248046875,0.0002593994140625,-0.981719970703125,432183.0102018334,0.002741458026127568,-0.003391801964324918,-0.04147607081689406,432183.0102018334,-0.1430995495095534,0.005054506146064995,0.002071129857738353,0.002332017291337252,-0.004411892965435982,-0.007346203085035086,0.002620697021484375,-0.005802406929433346,0.01478610653430223,XArbitraryZVertical,0.001213581710038451,0.00244675184072136,-0.07148586501442547,0.9974378736182042,0.005054473876953125,-0.002071128459647298,-0.9999850988388062,0,0,0,-1,10.142.150.220,100.92.133.249,1,1,0.6,0
2015-10-05 21:20:57.209,127,7046C08F-1AFD-4AA7-9EF7-651803F23386,my_iOS_device_1,1444105254.696648,37.87142511784,-122.2584833014933,87.6582,-1,-1,10,65,-9999,1444105257.175293,18.54293823242188,-15.20556640625,-31.29483032226562,244.0296936035156,230.3184967041016,10,432183.0957446667,0.0078125,-0.0023651123046875,-0.9893035888671875,432183.057976875,0.002604038913879479,0.00255903149145714,-0.03082529066934016,432183.057976875,-0.1430302188691442,0.005205317420701703,0.00214932145596812,0.002194250468164682,0.001539756660349667,0.003304246347397566,0.003736368613317609,0.004285550210624933,0.01512086112052202,XArbitraryZVertical,0.001257880422633941,0.002519212873017435,-0.07145109232029816,0.9974401298872936,0.005205282010138035,-0.002149319741874933,-0.9999841451644897,0,0,0,-1,10.142.150.220,100.92.133.249,1,1,0.6,0
2015-10-05 21:20:57.267,128,7046C08F-1AFD-4AA7-9EF7-651803F23386,my_iOS_device_1,1444105254.696648,37.87142511784,-122.2584833014933,87.6582,-1,-1,10,65,-9999,1444105257.227117,18.32281494140625,-15.391845703125,-31.37744140625,244.0211181640625,230.3099212646484,10,432183.1447245834,0.0076751708984375,0.0038299560546875,-0.987548828125,432183.1057520417,0.0001043959147311061,0.01819711341240243,-0.02736051809114707,432183.1057520417,-0.1430256773197898,0.005480967565474479,0.001961918907908422,-0.0003058338479604572,0.01717943698167801,0.006768689956516027,0.008114651776850224,-0.0003726770810317248,0.02779982797801495,XArbitraryZVertical,0.001174260771177312,0.002663383354152539,-0.0714489163243717,0.9974400131621076,0.005480929743498564,-0.001961917616426945,-0.9999830722808838,0,0,0,-1,10.142.150.220,100.92.133.249,1,1,0.6,0
2015-10-05 21:20:57.306,129,7046C08F-1AFD-4AA7-9EF7-651803F23386,my_iOS_device_1,1444105254.696648,37.87142511784,-122.2584833014933,87.6582,-1,-1,10,65,-9999,1444105257.278982,18.40753173828125,-15.070068359375,-31.09652709960938,244.0228271484375,230.3116302490234,10,432183.1938516667,0.0047149658203125,-0.006134033203125,-0.985931396484375,432183.1535269167,0.009595103091446486,0.01452541321751018,-0.03316700821584683,432183.1535269167,-0.1431005029881212,0.005381626222278799,0.001908119949616156,0.009183833375573158,0.01350792031735182,0.000961892947088927,0.002293580444529653,0.005738074891269207,0.01243487093597651,XArbitraryZVertical,0.001143979105704912,0.002615719118783934,-0.07148636563193653,0.9974374912013467,0.005381590221077204,-0.001908118836581707,-0.9999837279319763,0,0,0,-1,10.142.150.220,100.92.133.249,1,1,0.6,0
2015-10-05 21:20:57.367,130,7046C08F-1AFD-4AA7-9EF7-651803F23386,my_iOS_device_1,1444105254.696648,37.87142511784,-122.2584833014933,87.6582,-1,-1,10,65,-9999,1444105257.330141,18.50909423828125,-15.23941040039062,-31.03044128417969,244.0220489501953,230.3108520507812,10,432183.2428847083,0.0029296875,-0.0005645751953125,-0.98785400390625,432183.20130225,-0.002096174094001368,-0.00101333279477515,-0.02849209523832174,432183.20130225,-0.1431815039909319,0.005272770757402066,0.002248109821482035,-0.002508161123842001,-0.001995697850361466,0.005640787538141012,-0.0005577671690843999,-0.003885925281792879,0.01405217591673136,XArbitraryZVertical,0.001309750777118497,0.002549224589927531,-0.07152636479786836,0.997434591913523,0.005272733047604561,-0.002248107921332121,-0.999983549118042,0,0,0,-1,10.142.150.220,100.92.133.249,1,1,0.6,0
2015-10-05 21:20:57.404,131,7046C08F-1AFD-4AA7-9EF7-651803F23386,my_iOS_device_1,1444105254.696648,37.87142511784,-122.2584833014933,87.6582,-1,-1,10,65,-9999,1444105257.382035,18.42440795898438,-15.42568969726562,-31.04695129394531,244.0151824951172,230.3039855957031,10,432183.2919722917,0.006988525390625,0.000732421875,-0.9804840087890625,432183.2490771667,0.001584048216379131,-0.004575843384974147,-0.04267023224968559,432183.2490771667,-0.1432827636435704,0.005042610896535059,0.001918063549221465,0.001171067357063293,-0.005558547098189592,-0.008537690155208111,-0.002112892689183354,0.001353487139567733,0.01213144231587648,XArbitraryZVertical,0.001137043589013589,0.002446186734277813,-0.07157744222208222,0.9974313976746891,0.005042580422013998,-0.001918062334880233,-0.9999854564666748,0,0,0,-1,10.142.150.220,100.92.133.249,1,1,0.6,0
2015-10-05 21:20:57.470,132,7046C08F-1AFD-4AA7-9EF7-651803F23386,my_iOS_device_1,1444105254.696648,37.87142511784,-122.2584833014933,87.6582,-1,-1,10,65,-9999,1444105257.43363,18.25503540039062,-15.66278076171875,-31.013916015625,243.9929809570312,230.2817840576172,10,432183.3410432501,0.0048828125,-0.0028076171875,-0.98565673828125,432183.2968522917,-0.003330549259253095,0.002586195734575948,-0.02496260784563972,432183.2968522917,-0.1430379970205944,0.005532476951502006,0.001933083425335196,-0.003744490910321474,0.001604609075002372,0.009169559925794601,0.001456086989492178,0.002665504114702344,0.01949881948530674,XArbitraryZVertical,0.001161736660703817,0.00269009516785382,-0.07145507092153651,0.9974395152566989,0.005532438401132822,-0.001933082239702344,-0.9999828338623047,0,0,0,-1,10.142.150.220,100.92.133.249,1,1,0.6,0
2015-10-05 21:20:57.502,133,7046C08F-1AFD-4AA7-9EF7-651803F23386,my_iOS_device_1,1444105254.696648,37.87142511784,-122.2584833014933,87.6582,-1,-1,10,65,-9999,1444105257.485352,18.22119140625,-15.49343872070312,-30.98088073730469,243.9712371826172,230.2600402832031,10,432183.3901378334,0.007354736328125,-0.0054931640625,-0.9785919189453125,432183.3446274584,0.002691390597634078,-0.01067661281012767,-0.02958265970470919,432183.3446274584,-0.1429378277139255,0.00558804485725036,0.001838943588353298,0.002273031277582049,-0.01162057649344206,0.004553403239697218,-0.0007051938446238637,-0.0009686746634542942,0.01432595774531364,XArbitraryZVertical,0.001116636297988964,0.002721227542463089,-0.07140521646618123,0.9974430525626309,0.005588006228208542,-0.001838942524045706,-0.9999827146530151,0,0,0,-1,10.142.150.220,100.92.133.249,1,1,0.6,0
2015-10-05 21:20:57.569,134,7046C08F-1AFD-4AA7-9EF7-651803F23386,my_iOS_device_1,1444105254.696648,37.87142511784,-122.2584833014933,87.6582,-1,-1,10,65,-9999,1444105257.546729,18.37359619140625,-15.23944091796875,-31.03044128417969,243.9598541259766,230.2486572265625,10,432183.4392234167,0.0001678466796875,0.0030517578125,-0.9902801513671875,432183.44017775,-0.003250654426550718,-0.008237157251615083,-0.02491626884267234,432183.3924025,-0.1428556800158136,0.005538023224963786,0.00210765562502298,-0.00354288425296545,-0.009097413159906864,-0.005015369970351458,0.001816753763705492,-0.003385510062798858,0.021390525624156,XArbitraryZVertical,0.001248752468141656,0.002686737539120159,-0.07136389493881402,0.9974459466847475,0.005537982564419508,-0.002107653999701142,-0.9999824166297913,0,0,0,-1,10.142.150.220,100.92.133.249,1,1,0.6,0
2015-10-05 21:20:57.601,135,7046C08F-1AFD-4AA7-9EF7-651803F23386,my_iOS_device_1,1444105254.696648,37.87142511784,-122.2584833014933,87.6582,-1,-1,10,65,-9999,1444105257.546729,18.37359619140625,-15.23944091796875,-31.03044128417969,243.9598541259766,230.2486572265625,10,432183.4883120834,0.0075836181640625,-0.0040435791015625,-0.98370361328125,432183.44017775,-0.003250654426550718,-0.008237157251615083,-0.02491626884267234,432183.44017775,-0.1427658900634744,0.004862401068965366,0.001874210573927394,-0.003668053075671196,-0.009181026369333267,0.009219156578183174,-0.004694526549428701,0.004925967194139957,0.009706270880997181,XArbitraryZVertical,0.00110811453955011,0.002358169256248807,-0.07131982362714509,0.9974500959334858,0.004862373229116201,-0.001874209498055279,-0.9999864101409912,0,0,0,-1,10.142.150.220,100.92.133.249,1,1,0.6,0
2015-10-05 21:20:57.667,136,7046C08F-1AFD-4AA7-9EF7-651803F23386,my_iOS_device_1,1444105254.696648,37.87142511784,-122.2584833014933,87.6582,-1,-1,10,65,-9999,1444105257.61481,18.44131469726562,-15.03619384765625,-31.26179504394531,243.9633331298828,230.2521362304688,10,432183.5374109167,0.003875732421875,0.0001068115234375,-0.98687744140625,432183.535728,0.001465803863979613,0.0001800296896893565,-0.03320109667779984,432183.487952875,-0.1427395918797597,0.004755471070101228,0.001910116816680139,0.00565636157989502,0.003956722095608711,0.008085421286523342,0.0009360838448628783,-0.004254435189068317,0.01576445624232292,XArbitraryZVertical,0.001122178472810168,0.00230357484523281,-0.07130672340957971,0.9974511443950519,0.0047554443590343,-0.001910115708597004,-0.9999868869781494,0,0,0,-1,10.142.150.220,100.92.133.249,1,1,0.6,0
2015-10-05 21:20:57.699,137,7046C08F-1AFD-4AA7-9EF7-651803F23386,my_iOS_device_1,1444105254.696648,37.87142511784,-122.2584833014933,87.6582,-1,-1,10,65,-9999,1444105257.666662,18.39053344726562,-14.78216552734375,-31.24528503417969,243.9783325195312,230.2671356201172,10,432183.5865046667,0.0041656494140625,-0.0041961669921875,-0.982513427734375,432183.535728,0.001465803863979613,0.0001800296896893565,-0.03320109667779984,432183.535728,-0.1427843325692143,0.004965816532989713,0.001900662223403423,0.001043107360601425,-0.0007246548193506896,0.0009377692476846278,-0.001349454163573682,0.00246523623354733,0.01556508801877499,XArbitraryZVertical,0.001125016630553293,0.002408791437040175,-0.07132893032397386,0.997449304857261,0.004965787287801504,-0.00190066103823483,-0.9999858736991882,0,0,0,-1,10.142.150.220,100.92.133.249,1,1,0.6,0
2015-10-05 21:20:57.767,138,7046C08F-1AFD-4AA7-9EF7-651803F23386,my_iOS_device_1,1444105254.696648,37.87142511784,-122.2584833014933,87.6582,-1,-1,10,65,-9999,1444105257.717518,18.72921752929688,-14.8837890625,-31.44357299804688,243.9998474121094,230.2886505126953,10,432183.6355821667,0.004638671875,-0.003265380859375,-0.9829864501953125,432183.631278375,-0.002009088726355777,0.002670351625022452,-0.04155623196570544,432183.5835032084,-0.1426458033147442,0.004934623914172115,0.001807276416121515,-0.00841215718537569,-0.001862630946561694,0.006764436606317759,0.0002076160890283063,-0.002419409109279513,0.01555015612393618,XArbitraryZVertical,0.001077164370920806,0.002396640295396078,-0.071259977730857,0.9974543154480872,0.00493459589779377,-0.001807275461032987,-0.9999861717224121,0,0,0,-1,10.142.150.220,100.92.133.249,1,1,0.6,0
2015-10-05 21:20:57.797,139,7046C08F-1AFD-4AA7-9EF7-651803F23386,my_iOS_device_1,1444105254.696648,37.87142511784,-122.2584833014933,87.6582,-1,-1,10,65,-9999,1444105257.76945,18.67843627929688,-15.40875244140625,-31.75753784179688,244.0049896240234,230.2937927246094,10,432183.684674125,0.0040130615234375,-0.006103515625,-0.9883880615234375,432183.631278375,-0.002009088726355777,0.002670351625022452,-0.04155623196570544,432183.631278375,-0.1427348310539445,0.00516521216278262,0.002069355485656552,-0.002430363092571497,0.001766969566233456,-0.007418001070618629,0.005149763077497482,-0.003713726997375488,0.01335121877491474,XArbitraryZVertical,0.001216197465524421,0.002502248276270231,-0.07130390691735464,0.9974507569176596,0.005165178328752518,-0.002069354057312012,-0.9999845027923584,0,0,0,-1,10.142.150.220,100.92.133.249,1,1,0.6,0
2015-10-05 21:20:57.869,140,7046C08F-1AFD-4AA7-9EF7-651803F23386,my_iOS_device_1,1444105254.696648,37.87142511784,-122.2584833014933,87.6582,-1,-1,10,65,-9999,1444105257.821342,18.52603149414062,-15.1885986328125,-31.90625,244.0058135986328,230.2946166992188,10,432183.7337702501,0.0053253173828125,6.103515625e-05,-0.9849090576171875,432183.72682875,-0.005621400428939256,0.002651975813500906,-0.0321073364181043,432183.6790535834,-0.1427098165111858,0.005071372396946527,0.001792172646118432,0.004653854295611382,-0.006710444111377001,-0.003736837999895215,0.002130805980414152,0.004660823848098516,0.01683123782277107,XArbitraryZVertical,0.00107458296655738,0.002465344260444597,-0.07129184857662606,0.9974518733631492,0.005071342457085848,-0.00179217173717916,-0.9999855160713196,0,0,0,-1,10.142.150.220,100.92.133.249,1,1,0.6,0
