loggingTime,loggingSample,identifierForVendor,locationTimestamp_since1970,locationLatitude,locationLongitude,locationAltitude,locationSpeed,locationCourse,locationVerticalAccuracy,locationHorizontalAccuracy,locationFloor,locationHeadingTimestamp_since1970,locationHeadingX,locationHeadingY,locationHeadingZ,locationTrueHeading,locationMagneticHeading,locationHeadingAccuracy,accelerometerTimestamp_sinceReboot,accelerometerAccelerationX,accelerometerAccelerationY,accelerometerAccelerationZ,gyroTimestamp_sinceReboot,gyroRotationX,gyroRotationY,gyroRotationZ,motionTimestamp_sinceReboot,motionYaw,motionRoll,motionPitch,motionRotationRateX,motionRotationRateY,motionRotationRateZ,motionUserAccelerationX,motionUserAccelerationY,motionUserAccelerationZ,motionAttitudeReferenceFrame,motionQuaternionX,motionQuaternionY,motionQuaternionZ,motionQuaternionW,motionGravityX,motionGravityY,motionGravityZ,motionMagneticFieldX,motionMagneticFieldY,motionMagneticFieldZ,motionMagneticFieldCalibrationAccuracy,deviceOrientation
2015-10-05 22:32:02.842,1,7046C08F-1AFD-4AA7-9EF7-651803F23386,1444109516.619915,37.87140919645066,-122.2584902225184,87.72093,-1,-1,10,65,-9999,1444109522.836892,-5.504302978515625,-33.765380859375,-17.67874145507812,167.6063385009766,153.8951416015625,10,433514.6105393334,0.2847747802734375,-0.4119110107421875,-0.698028564453125,433514.6128974584,-0.03886457505196236,-0.5607597265009375,0.7481000596986705,433514.5969734167,-2.569343298131695,0.2113298913527812,0.5044372358206911,-0.2041132897138596,0.06417280435562134,0.9238960742950439,-0.08037779480218887,0.1005176082253456,0.2455730438232422,XArbitraryZVertical,-0.1680195097438395,0.2092468647077197,0.9163824903914888,-0.2970325323249079,0.183634027838707,-0.4833148419857025,-0.8559703826904297,0,0,0,-1,1
2015-10-05 22:32:02.845,2,7046C08F-1AFD-4AA7-9EF7-651803F23386,1444109516.619915,37.87140919645066,-122.2584902225184,87.72093,-1,-1,10,65,-9999,1444109522.836892,-5.504302978515625,-33.765380859375,-17.67874145507812,167.6063385009766,153.8951416015625,10,433514.6301772083,0.3237762451171875,-0.341033935546875,-0.6125030517578125,433514.6288217084,-0.1187716582953539,-1.150036315638335,1.101983834825599,433514.6128974584,-2.554822800967537,0.1990923922456072,0.505593166434016,-0.04172383993864059,-0.5619739294052124,0.7812983393669128,0.1117397919297218,0.07241547107696533,0.1595766842365265,XArbitraryZVertical,-0.1640846473124395,0.21041294223516,0.9150684205425211,-0.3024109918341867,0.1730349808931351,-0.4843264818191528,-0.8576052188873291,0,0,0,-1,1
2015-10-05 22:32:02.848,3,7046C08F-1AFD-4AA7-9EF7-651803F23386,1444109516.619915,37.87140919645066,-122.2584902225184,87.72093,-1,-1,10,65,-9999,1444109522.836892,-5.504302978515625,-33.765380859375,-17.67874145507812,167.6063385009766,153.8951416015625,10,433514.6498192917,0.1193389892578125,-0.3607330322265625,-0.708892822265625,433514.6606700834,-0.4625985381978159,-0.6486408466802442,1.51229892818687,433514.644745875,-2.511342776466878,0.1426877926712089,0.5069205306219006,-0.3052798211574554,-1.207791209220886,1.463090062141418,0.07791894674301147,0.1533187627792358,0.2115046977996826,XArbitraryZVertical,-0.1431280713834136,0.2164135427837288,0.9125001208993188,-0.3162642297835996,0.1243210434913635,-0.4854873418807983,-0.8653590679168701,0,0,0,-1,1
2015-10-05 22:32:02.853,4,7046C08F-1AFD-4AA7-9EF7-651803F23386,1444109516.619915,37.87140919645066,-122.2584902225184,87.72093,-1,-1,10,65,-9999,1444109522.836892,-5.504302978515625,-33.765380859375,-17.67874145507812,167.6063385009766,153.8951416015625,10,433514.669576375,0.0077972412109375,-0.42791748046875,-0.788848876953125,433514.6765943334,-0.6866601344022155,0.2835787191938174,1.451223589643647,433514.6606700834,-2.48271297723071,0.1148987585337744,0.5036190883919455,-0.4654577672481537,-0.6498550772666931,1.545496940612793,-0.03321214392781258,0.0764857679605484,0.1255141645669937,XArbitraryZVertical,-0.1330891766616732,0.2173795761953932,0.9102427920135566,-0.3263302782397302,0.1004118546843529,-0.4825984537601471,-0.87006676197052,0,0,0,-1,1
2015-10-05 22:32:02.880,5,7046C08F-1AFD-4AA7-9EF7-651803F23386,1444109516.619915,37.87140919645066,-122.2584902225184,87.72093,-1,-1,10,65,-9999,1444109522.862621,-6.41876220703125,-33.49441528320312,-17.74482727050781,167.2647552490234,153.5535583496094,10,433514.6891034167,0.0513458251953125,-0.448699951171875,-1.009002685546875,433514.6925184584,-0.675148886906457,0.8767102340091042,1.380062593736185,433514.6765943334,-2.454185170695179,0.1005057021014108,0.4964063046075806,-0.6895193457603455,0.282364547252655,1.484421491622925,-0.08042868971824646,0.04835120588541031,0.08601358532905579,XArbitraryZVertical,-0.1285225168460633,0.2145943443708518,0.907350307765854,-0.3378559589896753,0.08822593092918396,-0.4762686789035797,-0.8748624324798584,0,0,0,-1,1
2015-10-05 22:32:02.910,6,7046C08F-1AFD-4AA7-9EF7-651803F23386,1444109516.619915,37.87140919645066,-122.2584902225184,87.72093,-1,-1,10,65,-9999,1444109522.890428,-7.688873291015625,-32.833984375,-17.86050415039062,165.4028167724609,151.6916198730469,10,433514.708751625,0.104827880859375,-0.4386138916015625,-1.175140380859375,433514.7084426667,-0.4294722763466473,0.7200918608304162,1.404920006718766,433514.6925184584,-2.427238281671111,0.09941693608174348,0.487549349407174,-0.6780081391334534,0.8754960894584656,1.413260340690613,-0.03634278848767281,0.01976223662495613,-0.1298816055059433,XArbitraryZVertical,-0.1294609808518969,0.2089959588109743,0.9038711165428818,-0.3501107657829107,0.08768860995769501,-0.468462198972702,-0.8791210651397705,0,0,0,-1,1
2015-10-05 22:32:02.913,7,7046C08F-1AFD-4AA7-9EF7-651803F23386,1444109516.619915,37.87140919645066,-122.2584902225184,87.72093,-1,-1,10,65,-9999,1444109522.890428,-7.688873291015625,-32.833984375,-17.86050415039062,165.4028167724609,151.6916198730469,10,433514.72839575,0.04974365234375,-0.407928466796875,-1.159912109375,433514.740291125,0.3924745772188304,-0.1682862145465431,1.542731935227642,433514.7243669167,-2.373560347080012,0.09257137487611719,0.480548444309257,-0.06648531556129456,0.1578404754400253,1.519447088241577,0.01188711915165186,0.04657038301229477,-0.2857411205768585,XArbitraryZVertical,-0.1307257961044826,0.2035641649812338,0.8954429478765357,-0.3737035242897063,0.08196969330310822,-0.4622655808925629,-0.8829448223114014,0,0,0,-1,1
2015-10-05 22:32:02.931,8,7046C08F-1AFD-4AA7-9EF7-651803F23386,1444109516.619915,37.87140919645066,-122.2584902225184,87.72093,-1,-1,10,65,-9999,1444109522.914455,-8.58642578125,-32.0718994140625,-17.81094360351562,162.9798889160156,149.2686920166016,10,433514.7480420001,0.0830535888671875,-0.4209747314453125,-0.9597320556640625,433514.7562155417,0.4010520864577577,-0.1766051308436236,1.510835254851763,433514.740291125,-2.346229343489804,0.07947940676484488,0.4864421068151458,0.3896153569221497,-0.1695003807544708,1.575929284095764,-0.03196271508932114,0.05569472908973694,-0.2515098750591278,XArbitraryZVertical,-0.1287462640802534,0.2069271987063327,0.8904135043771141,-0.3844077589537172,0.07018598169088364,-0.4674836695194244,-0.8812110424041748,0,0,0,-1,1
2015-10-05 22:32:02.951,9,7046C08F-1AFD-4AA7-9EF7-651803F23386,1444109516.619915,37.87140919645066,-122.2584902225184,87.72093,-1,-1,10,65,-9999,1444109522.941063,-9.839599609375,-31.86871337890625,-17.51350402832031,161.0315399169922,147.3203430175781,10,433514.76779725,0.1084442138671875,-0.418121337890625,-0.92535400390625,433514.7721397083,0.4722522308332441,-0.1942400509499103,1.725272985824943,433514.7562155417,-2.318833961181759,0.06286291595519333,0.4942056652190672,0.3982312977313995,-0.177794486284256,1.544082045555115,0.02774892933666706,0.05335777997970581,-0.0811251699924469,XArbitraryZVertical,-0.1256886568313432,0.2118936472820173,0.8852167329066645,-0.3945817780480146,0.05530466139316559,-0.4743325114250183,-0.878606915473938,0,0,0,-1,1
2015-10-05 22:32:02.980,10,7046C08F-1AFD-4AA7-9EF7-651803F23386,1444109516.619915,37.87140919645066,-122.2584902225184,87.72093,-1,-1,10,65,-9999,1444109522.96663,-10.77099609375,-31.51309204101562,-17.23258972167969,159.1836090087891,145.472412109375,10,433514.7873717917,-0.034210205078125,-0.453155517578125,-0.951141357421875,433514.7880639167,0.4219810705163634,-0.3719466652203907,1.973377866666687,433514.7721397083,-2.288835700433095,0.0458889247620108,0.5033040886161011,0.4694314301013947,-0.1954293847084045,1.758519649505615,0.06825990974903107,0.06420119106769562,-0.05028246343135834,XArbitraryZVertical,-0.1231856228591473,0.2174615640357515,0.8791971044098774,-0.4056454388813469,0.04018430411815643,-0.4823225140571594,-0.8750715255737305,0,0,0,-1,1
2015-10-05 22:32:03.013,11,7046C08F-1AFD-4AA7-9EF7-651803F23386,1444109516.619915,37.87140919645066,-122.2584902225184,87.72093,-1,-1,10,65,-9999,1444109522.992345,-11.80398559570312,-31.05587768554688,-17.24911499023438,157.0088653564453,143.2976684570312,10,433514.806975875,-0.0972900390625,-0.3873291015625,-0.8832550048828125,433514.8199121667,0.5563178401187944,1.701215586433821,2.339935359105193,433514.8039879167,-2.215210949938664,0.005655008356078667,0.5188800019662166,0.4690002799034119,0.4549560844898224,2.19591498374939,-0.09035985916852951,0.1001406610012054,-0.006562450900673866,XArbitraryZVertical,-0.1170675177208599,0.2282861553446063,0.86436389259661,-0.4324993511531722,0.00491064228117466,-0.4959078729152679,-0.868361234664917,0,0,0,-1,1
2015-10-05 22:32:03.016,12,7046C08F-1AFD-4AA7-9EF7-651803F23386,1444109516.619915,37.87140919645066,-122.2584902225184,87.72093,-1,-1,10,65,-9999,1444109522.992345,-11.80398559570312,-31.05587768554688,-17.24911499023438,157.0088653564453,143.2976684570312,10,433514.8266255417,-0.13287353515625,-0.5020599365234375,-0.9364471435546875,433514.835836375,0.3328839509833265,2.230168647403724,2.146503044913904,433514.8199121667,-2.172250631922751,0.005164602946455748,0.5274172232430925,0.5534970164299011,1.700026273727417,2.373181581497192,-0.1313701122999191,0.02729003503918648,-0.04427262395620346,XArbitraryZVertical,-0.123652773773686,0.2294794503392331,0.8539232353950045,-0.4504045753127173,0.004462764598429203,-0.5033032298088074,-0.8640983700752258,0,0,0,-1,1
2015-10-05 22:32:03.030,13,7046C08F-1AFD-4AA7-9EF7-651803F23386,1444109516.619915,37.87140919645066,-122.2584902225184,87.72093,-1,-1,10,65,-9999,1444109523.022357,-12.396728515625,-30.93734741210938,-17.19953918457031,159.252685546875,145.5414886474609,10,433514.8463737083,-0.1274261474609375,-0.576324462890625,-0.7818603515625,433514.8517607084,-0.1008901294721258,2.174912582158433,1.880716638646797,433514.835836375,-2.130525011798326,0.01810206246195523,0.5348913912091792,0.3300631940364838,2.228979349136353,2.179749250411987,-0.1484463214874268,0.00768766738474369,-0.07626409828662872,XArbitraryZVertical,-0.1356106811018306,0.2269762570887784,0.8426191124763057,-0.469131701315029,0.01557278819382191,-0.5097476243972778,-0.86018306016922,0,0,0,-1,1
2015-10-05 22:32:03.050,14,7046C08F-1AFD-4AA7-9EF7-651803F23386,1444109516.619915,37.87140919645066,-122.2584902225184,87.72093,-1,-1,10,65,-9999,1444109523.044953,-12.95556640625,-30.51397705078125,-17.44741821289062,156.1287994384766,142.4176025390625,10,433514.8659579583,0.0358428955078125,-0.596710205078125,-0.754913330078125,433514.8676849584,-0.2104171566754876,2.118357160617292,1.672077674631155,433514.8517607084,-2.09360175413625,0.03414104999348624,0.5360531891737854,-0.1037108823657036,2.173723220825195,1.913962841033936,-0.156772568821907,-0.0655776783823967,0.07736983150243759,XArbitraryZVertical,-0.1467378751577668,0.2210269285769264,0.8325295089901471,-0.4863226393030482,0.02934642322361469,-0.5107467770576477,-0.8592301607131958,0,0,0,-1,1
2015-10-05 22:32:03.080,15,7046C08F-1AFD-4AA7-9EF7-651803F23386,1444109516.619915,37.87140919645066,-122.2584902225184,87.72093,-1,-1,10,65,-9999,1444109523.07044,-13.29425048828125,-29.70111083984375,-17.77790832519531,152.4449310302734,138.7337341308594,10,433514.8855420417,0.1208343505859375,-0.5286407470703125,-0.8512725830078125,433514.883609125,-0.3245575778351937,1.342800442712123,1.659771207233899,433514.8676849584,-2.060778301105759,0.05173684707049617,0.5343116971601867,-0.2132374942302704,2.117168188095093,1.705323696136475,-0.008662975393235683,-0.08746141195297241,0.1045544669032097,XArbitraryZVertical,-0.1571659887124094,0.2134594892137801,0.8232902775659134,-0.5019233181693282,0.04450587183237076,-0.5092487931251526,-0.8594678044319153,0,0,0,-1,1
2015-10-05 22:32:03.111,16,7046C08F-1AFD-4AA7-9EF7-651803F23386,1444109516.619915,37.87140919645066,-122.2584902225184,87.72093,-1,-1,10,65,-9999,1444109523.096427,-13.53134155273438,-28.82049560546875,-18.1083984375,150.3388977050781,136.6277008056641,10,433514.9051896667,0.07733154296875,-0.5152130126953125,-1.013992309570312,433514.9154574167,-0.1380188561255745,0.4755255221290605,1.785387722162974,433514.8995333334,-1.99674794115426,0.05994438994215569,0.527456900441115,-0.3285667598247528,0.7506092190742493,1.792760133743286,0.08716494590044022,-0.02194630913436413,-0.07444331794977188,XArbitraryZVertical,-0.1654597264787813,0.2033571640318846,0.8069316417783013,-0.5292733398230786,0.05176632851362228,-0.5033375024795532,-0.8625378608703613,0,0,0,-1,1
2015-10-05 22:32:03.113,17,7046C08F-1AFD-4AA7-9EF7-651803F23386,1444109516.619915,37.87140919645066,-122.2584902225184,87.72093,-1,-1,10,65,-9999,1444109523.096427,-13.53134155273438,-28.82049560546875,-18.1083984375,150.3388977050781,136.6277008056641,10,433514.9248387917,-0.0697784423828125,-0.4821624755859375,-1.112686157226562,433514.931381625,0.1358579672170842,0.8398792487655263,1.507059957690466,433514.9154574167,-1.963207480156727,0.05134245136659524,0.5257139568292327,-0.1408391892910004,0.4743366539478302,1.818633437156677,-0.02342438325285912,-0.008575812913477421,-0.1734663993120193,XArbitraryZVertical,-0.1649505840934745,0.2021837382507312,0.7988618829106333,-0.5419711549766126,0.04438995942473412,-0.5018306970596313,-0.8638260960578918,0,0,0,-1,1
2015-10-05 22:32:03.128,18,7046C08F-1AFD-4AA7-9EF7-651803F23386,1444109516.619915,37.87140919645066,-122.2584902225184,87.72093,-1,-1,10,65,-9999,1444109523.122435,-13.75149536132812,-28.26165771484375,-18.25711059570312,148.4337310791016,134.7225341796875,10,433514.9444838334,-0.04925537109375,-0.4322052001953125,-1.063796997070312,433514.9473059584,0.3216845596512162,1.376514730531981,1.329013790381001,433514.931381625,-1.932811722414931,0.04682873871591375,0.5273791293249812,0.133037656545639,0.8386903405189514,1.540305495262146,-0.1102297306060791,0.02110782638192177,-0.2495044320821762,XArbitraryZVertical,-0.1666721585516193,0.2015676739488619,0.790721342251228,-0.5534894970015511,0.0404512844979763,-0.5032703280448914,-0.8631817102432251,0,0,0,-1,1
2015-10-05 22:32:03.148,19,7046C08F-1AFD-4AA7-9EF7-651803F23386,1444109516.619915,37.87140919645066,-122.2584902225184,87.72093,-1,-1,10,65,-9999,1444109523.122435,-13.75149536132812,-28.26165771484375,-18.25711059570312,148.4337310791016,134.7225341796875,10,433514.9642418334,-0.0041961669921875,-0.4368896484375,-0.80096435546875,433514.9632301667,0.1698082111095234,1.65762070465366,1.235915004994011,433514.9473059584,-1.907289800799187,0.05331681446820639,0.5329146490987264,0.3188642561435699,1.375325798988342,1.362259268760681,-0.09515698254108429,0.07584077119827271,-0.2036909908056259,XArbitraryZVertical,-0.1733013163482474,0.1997840158120973,0.7824086497655733,-0.5638170851880894,0.04590161517262459,-0.5080459713935852,-0.8601059913635254,0,0,0,-1,1
2015-10-05 22:32:03.207,20,7046C08F-1AFD-4AA7-9EF7-651803F23386,1444109516.619915,37.87140919645066,-122.2584902225184,87.72093,-1,-1,10,65,-9999,1444109523.2003,-13.39590454101562,-26.82220458984375,-19.26510620117188,141.7430725097656,128.0318756103516,10,433514.983776625,0.04241943359375,-0.3457489013671875,-0.8769683837890625,433514.9950785834,-0.1236332588652935,1.773588320637269,1.459803762043664,433514.979154375,-1.858514102049334,0.08401206481795706,0.5390226847336319,-0.1186329126358032,2.064916849136353,1.426665186882019,-0.03467701748013496,0.08850806206464767,0.04633073881268501,XArbitraryZVertical,-0.1916273089765914,0.1889101117949068,0.7648816047123017,-0.585276067244155,0.07201527059078217,-0.5132974982261658,-0.8551838994026184,0,0,0,-1,1
2015-10-05 22:32:03.210,21,7046C08F-1AFD-4AA7-9EF7-651803F23386,1444109516.619915,37.87140919645066,-122.2584902225184,87.72093,-1,-1,10,65,-9999,1444109523.2003,-13.39590454101562,-26.82220458984375,-19.26510620117188,141.7430725097656,128.0318756103516,10,433515.0034158333,-0.1186981201171875,-0.2420501708984375,-0.940032958984375,433515.0110026667,0.05987025814996234,0.9360643715398091,1.235293689511695,433514.9950785834,-1.830727778144285,0.1005331448362028,0.5384101630588358,-0.1264530718326569,1.772398233413696,1.493049025535583,-0.1008591130375862,0.2339631319046021,-0.1560942977666855,XArbitraryZVertical,-0.2003006879324541,0.1810651061129217,0.7551200148500463,-0.5974017282658235,0.08616489917039871,-0.5127717256546021,-0.8541901111602783,0,0,0,-1,1
2015-10-05 22:32:03.213,22,7046C08F-1AFD-4AA7-9EF7-651803F23386,1444109516.619915,37.87140919645066,-122.2584902225184,87.72093,-1,-1,10,65,-9999,1444109523.2003,-13.39590454101562,-26.82220458984375,-19.26510620117188,141.7430725097656,128.0318756103516,10,433515.0230575417,-0.03802490234375,-0.4441070556640625,-0.72906494140625,433515.026926875,0.04247768570287286,0.5778646775502985,1.241339331502284,433515.0110026667,-1.805758209713341,0.1064796637034889,0.5409061893884601,0.0570504441857338,0.9348742961883545,1.268538951873779,-0.2098046243190765,0.2728628516197205,-0.08764562010765076,XArbitraryZVertical,-0.2054975330595079,0.1776994454305159,0.7466969384124573,-0.6071551310543555,0.09110649675130844,-0.514913022518158,-0.8523873686790466,0,0,0,-1,1
2015-10-05 22:32:03.227,23,7046C08F-1AFD-4AA7-9EF7-651803F23386,1444109516.619915,37.87140919645066,-122.2584902225184,87.72093,-1,-1,10,65,-9999,1444109523.2003,-13.39590454101562,-26.82220458984375,-19.26510620117188,141.7430725097656,128.0318756103516,10,433515.0427009167,0.061614990234375,-0.5279083251953125,-0.4806365966796875,433515.042851125,-0.1105816389950332,0.8726864639181034,1.271547035114835,433515.026926875,-1.782426560502721,0.1052080331509117,0.5438060912199174,0.03965788334608078,0.5766745805740356,1.274584412574768,-0.1278902143239975,0.07328972220420837,0.1219490393996239,XArbitraryZVertical,-0.2079470949457488,0.1767795635870411,0.7393472925855888,-0.6155262565869825,0.08986531943082809,-0.5173967480659485,-0.8510139584541321,0,0,0,-1,1
2015-10-05 22:32:03.246,24,7046C08F-1AFD-4AA7-9EF7-651803F23386,1444109516.619915,37.87140919645066,-122.2584902225184,87.72093,-1,-1,10,65,-9999,1444109523.22701,-13.27737426757812,-26.33108520507812,-19.38078308105469,140.4534759521484,126.7422790527344,10,433515.0623455,0.1332550048828125,-0.36102294921875,-0.651458740234375,433515.0746996667,-0.4090881750470718,0.8160247822494685,1.414244266327352,433515.0587752917,-1.733652231210754,0.1079394400895129,0.5451616578709194,-0.1510097980499268,1.028232455253601,1.301326632499695,0.05279891937971115,-0.0004713881644420326,0.1986085474491119,XArbitraryZVertical,-0.2135991471311513,0.1712943722316755,0.7236660055096507,-0.6335149207842951,0.09211380034685135,-0.5185562968254089,-0.8500672578811646,0,0,0,-1,1
2015-10-05 22:32:03.280,25,7046C08F-1AFD-4AA7-9EF7-651803F23386,1444109516.619915,37.87140919645066,-122.2584902225184,87.72093,-1,-1,10,65,-9999,1444109523.277478,-13.64993286132812,-24.94244384765625,-19.77737426757812,135.9834594726562,122.2722625732422,10,433515.082092125,0.214019775390625,-0.386749267578125,-0.6996002197265625,433515.090623875,-0.5284939319979736,0.4937940082586771,1.618260249006725,433515.0746996667,-1.707741918095245,0.1081661966888811,0.5421893502190313,-0.4119079411029816,0.8148347139358521,1.447489142417908,0.1351580768823624,0.130422979593277,0.2140627056360245,XArbitraryZVertical,-0.2149584021996435,0.1673482166014258,0.715724963967065,-0.6430592785105167,0.09247254580259323,-0.5160126090049744,-0.8515748977661133,0,0,0,-1,1
2015-10-05 22:32:03.310,26,7046C08F-1AFD-4AA7-9EF7-651803F23386,1444109516.619915,37.87140919645066,-122.2584902225184,87.72093,-1,-1,10,65,-9999,1444109523.304569,-14.05636596679688,-24.29891967773438,-19.8104248046875,134.2208709716797,120.5096740722656,10,433515.1016230417,0.037628173828125,-0.403228759765625,-0.7496490478515625,433515.1065479167,-0.4985538760749757,-0.01136477363580414,1.583948614154362,433515.090623875,-1.677035416366444,0.1025792888288815,0.5367717056788088,-0.5313137173652649,0.4926039576530457,1.651504993438721,0.1260213404893875,0.1246151104569435,0.1552464067935944,XArbitraryZVertical,-0.2138142061436746,0.1638907398810008,0.7069983636804194,-0.653893435037883,0.08799842745065689,-0.5113644003868103,-0.8548465967178345,0,0,0,-1,1
2015-10-05 22:32:03.312,27,7046C08F-1AFD-4AA7-9EF7-651803F23386,1444109516.619915,37.87140919645066,-122.2584902225184,87.72093,-1,-1,10,65,-9999,1444109523.304569,-14.05636596679688,-24.29891967773438,-19.8104248046875,134.2208709716797,120.5096740722656,10,433515.121266875,0.0888519287109375,-0.3817291259765625,-0.7856597900390625,433515.1224721667,-0.3809502802337306,0.01112668703435106,1.436926143015447,433515.1065479167,-1.645888274419111,0.08882308558049559,0.5311862181652066,-0.5013736486434937,-0.01255481503903866,1.617193222045898,-0.03885503113269806,0.1033277064561844,0.1091587692499161,XArbitraryZVertical,-0.2097371142189088,0.16311478655322,0.6988220957471744,-0.6641171491705158,0.07648320496082306,-0.5065564513206482,-0.8588078022003174,0,0,0,-1,1
2015-10-05 22:32:03.326,28,7046C08F-1AFD-4AA7-9EF7-651803F23386,1444109516.619915,37.87140919645066,-122.2584902225184,87.72093,-1,-1,10,65,-9999,1444109523.304569,-14.05636596679688,-24.29891967773438,-19.8104248046875,134.2208709716797,120.5096740722656,10,433515.1409091667,0.13226318359375,-0.3975830078125,-0.7100677490234375,433515.15432075,-0.6731880013958317,0.1568993366736913,1.498177250190616,433515.138396375,-1.590129278037965,0.06218007014207096,0.5211648484797804,-0.4810577034950256,0.1373033970594406,1.454273700714111,0.08211129903793335,0.08149358630180359,0.1158537268638611,XArbitraryZVertical,-0.2017673244848865,0.1628129042595216,0.6838659056828479,-0.6819892433326146,0.05389028787612915,-0.4978906810283661,-0.8655638098716736,0,0,0,-1,1
2015-10-05 22:32:03.344,29,7046C08F-1AFD-4AA7-9EF7-651803F23386,1444109516.619915,37.87140919645066,-122.2584902225184,87.72093,-1,-1,10,65,-9999,1444109523.329844,-14.59829711914062,-23.6553955078125,-19.57907104492188,132.7992401123047,119.0880432128906,10,433515.1605586667,0.1253814697265625,-0.4130859375,-0.7361297607421875,433515.1702448333,-0.8944495500301219,0.02339720175689115,1.484310170394573,433515.15432075,-1.561934271679244,0.05065718577300223,0.5128711055585709,-0.6760076880455017,0.15570929646492,1.531421542167664,0.1105728819966316,0.08591107279062271,0.1441625952720642,XArbitraryZVertical,-0.1973272522553653,0.1610937022617898,0.6761664570101897,-0.6913101308553551,0.04412072151899338,-0.4906809628009796,-0.8702215552330017,0,0,0,-1,1
2015-10-05 22:32:03.364,30,7046C08F-1AFD-4AA7-9EF7-651803F23386,1444109516.619915,37.87140919645066,-122.2584902225184,87.72093,-1,-1,10,65,-9999,1444109523.356758,-15.19100952148438,-22.893310546875,-19.9921875,130.8439788818359,117.1327896118164,10,433515.1803029167,-0.004669189453125,-0.34503173828125,-0.8816986083984375,433515.1861691667,-0.7451215803355259,0.4189988627276927,1.428624270949344,433515.1702448333,-1.533380580831195,0.0381509481407848,0.5008101541924667,-0.8972692489624023,0.02220717445015907,1.517554402351379,0.09192381054162979,0.06705041974782944,0.1404258012771606,XArbitraryZVertical,-0.1912533798993972,0.1585697357322311,0.6685922089939125,-0.7009010213001058,0.03345765918493271,-0.48013636469841,-0.8765555620193481,0,0,0,-1,1
2015-10-05 22:32:03.406,31,7046C08F-1AFD-4AA7-9EF7-651803F23386,1444109516.619915,37.87140919645066,-122.2584902225184,87.72093,-1,-1,10,65,-9999,1444109523.381385,-15.73294067382812,-22.2159423828125,-20.35574340820312,129.1771545410156,115.4659576416016,10,433515.1998319583,0.01910400390625,-0.3683929443359375,-1.029327392578125,433515.2020932084,-0.2140121578309856,0.9954885502071832,1.020705489936925,433515.1861691667,-1.505947998401657,0.02689844238575374,0.4877532544991044,-0.7479413151741028,0.4178088307380676,1.461868405342102,-0.0284280851483345,0.1236105859279633,0.001369841047562659,XArbitraryZVertical,-0.1850963518801649,0.1555799337782804,0.6611477096766549,-0.7102238595791733,0.0237588956952095,-0.4686423242092133,-0.8830684423446655,0,0,0,-1,1
2015-10-05 22:32:03.409,32,7046C08F-1AFD-4AA7-9EF7-651803F23386,1444109516.619915,37.87140919645066,-122.2584902225184,87.72093,-1,-1,10,65,-9999,1444109523.381385,-15.73294067382812,-22.2159423828125,-20.35574340820312,129.1771545410156,115.4659576416016,10,433515.2194732084,0.06988525390625,-0.4275054931640625,-0.9886627197265625,433515.2180175,-0.2936041891174208,1.220179451377168,0.7827619002343789,433515.2020932084,-1.483886135258205,0.03093951625944369,0.4828507668105365,-0.2168318629264832,0.99429851770401,1.053949475288391,-0.008293977007269859,0.09591297060251236,-0.1440763771533966,XArbitraryZVertical,-0.1863731788351219,0.1504643725391941,0.6533195112530906,-0.7181915670789549,0.02739798091351986,-0.4643059074878693,-0.8852510452270508,0,0,0,-1,1
2015-10-05 22:32:03.423,33,7046C08F-1AFD-4AA7-9EF7-651803F23386,1444109516.619915,37.87140919645066,-122.2584902225184,87.72093,-1,-1,10,65,-9999,1444109523.40949,-15.93612670898438,-21.53857421875,-20.81840515136719,127.6160507202148,113.9048614501953,10,433515.2392210001,0.1401214599609375,-0.368865966796875,-1.079376220703125,433515.2498660834,-0.1598972571127935,0.3942090940367991,0.7260850385475305,433515.2339416667,-1.455073882789838,0.05411346710858483,0.4739441680827374,-0.3909208178520203,0.9743597507476807,0.6629002690315247,0.05864042788743973,0.08426789939403534,-0.08238304406404495,XArbitraryZVertical,-0.1927469543036225,0.1364268240435767,0.6414670440441204,-0.7299016130228668,0.04812531918287277,-0.4563992619514465,-0.8884726762771606,0,0,0,-1,1
2015-10-05 22:32:03.443,34,7046C08F-1AFD-4AA7-9EF7-651803F23386,1444109516.619915,37.87140919645066,-122.2584902225184,87.72093,-1,-1,10,65,-9999,1444109523.434153,-16.13934326171875,-20.62408447265625,-21.01669311523438,125.4927215576172,111.7815322875977,10,433515.2588667084,0.1139068603515625,-0.358612060546875,-1.0992431640625,433515.2657902084,0.3107962255344273,0.07428754702721531,0.7222032149426311,433515.2498660834,-1.442182390203792,0.05756583694788471,0.4704334228912203,-0.1627169400453568,0.3930188715457916,0.7593287229537964,0.1034398898482323,0.07029232382774353,-0.2285280674695969,XArbitraryZVertical,-0.1934476461506504,0.1327791793473245,0.6367216683970089,-0.7345292470176918,0.05128423497080803,-0.453272670507431,-0.8898953795433044,0,0,0,-1,1
2015-10-05 22:32:03.462,35,7046C08F-1AFD-4AA7-9EF7-651803F23386,1444109516.619915,37.87140919645066,-122.2584902225184,87.72093,-1,-1,10,65,-9999,1444109523.434153,-16.13934326171875,-20.62408447265625,-21.01669311523438,125.4927215576172,111.7815322875977,10,433515.2784393334,0.06890869140625,-0.34881591796875,-0.953399658203125,433515.2817144584,0.4824529367565746,-0.3771978862578089,0.7165937987385971,433515.2657902084,-1.428500278466878,0.05413715466200187,0.473476665553183,0.3079765439033508,0.07309732586145401,0.7554467916488647,0.06574895232915878,0.0973711684346199,-0.21055868268013,XArbitraryZVertical,-0.1943793931303915,0.1336952104395476,0.6317509082178802,-0.7383989654635857,0.04815790429711342,-0.4559832215309143,-0.8886845111846924,0,0,0,-1,1
2015-10-05 22:32:03.507,36,7046C08F-1AFD-4AA7-9EF7-651803F23386,1444109516.619915,37.87140919645066,-122.2584902225184,87.72093,-1,-1,10,65,-9999,1444109523.485504,-16.71511840820312,-19.7095947265625,-21.41329956054688,122.0658187866211,108.3546295166016,10,433515.2980365001,0.0567169189453125,-0.350738525390625,-0.835662841796875,433515.2976386667,0.3452165173592654,-0.7594115701126731,0.7237246788733933,433515.2817144584,-1.415644411178789,0.04494161845052932,0.4813712506812317,0.479633241891861,-0.3783881068229675,0.7498372793197632,0.0290876068174839,0.1141791120171547,-0.06793374568223953,XArbitraryZVertical,-0.1952495966598745,0.1383641546551969,0.6272103610664762,-0.7411748232917752,0.0398210845887661,-0.4629950225353241,-0.8854659199714661,0,0,0,-1,1
2015-10-05 22:32:03.510,37,7046C08F-1AFD-4AA7-9EF7-651803F23386,1444109516.619915,37.87140919645066,-122.2584902225184,87.72093,-1,-1,10,65,-9999,1444109523.485504,-16.71511840820312,-19.7095947265625,-21.41329956054688,122.0658187866211,108.3546295166016,10,433515.3176784167,0.0218963623046875,-0.4208984375,-0.8706512451171875,433515.3294869583,0.09637260931502442,-0.8192570608644977,0.7068564828449404,433515.31356275,-1.387657393851863,0.007286857415107537,0.4908387552178665,0.0863594189286232,-0.9147285223007202,0.8353177309036255,0.04348500072956085,0.0870426669716835,0.08522249758243561,XArbitraryZVertical,-0.1890497272186539,0.1526532140126163,0.6196388531030622,-0.7463276014025726,0.006426498293876648,-0.4713657796382904,-0.8819143772125244,0,0,0,-1,1
2015-10-05 22:32:03.521,38,7046C08F-1AFD-4AA7-9EF7-651803F23386,1444109516.619915,37.87140919645066,-122.2584902225184,87.72093,-1,-1,10,65,-9999,1444109523.511233,-17.56185913085938,-19.2015380859375,-21.08280944824219,120.7473602294922,107.0361709594727,10,433515.3374335,-0.03619384765625,-0.469482421875,-0.8122100830078125,433515.3454113334,0.04916967689002397,-0.3044027747054741,0.5546738707778884,433515.3294869583,-1.37342501850306,-0.01354336177228704,0.492096629573239,0.09355316311120987,-0.8204478621482849,0.7400997281074524,-0.0171777717769146,0.02223368920385838,0.0372844822704792,XArbitraryZVertical,-0.184195328457514,0.1595004672114976,0.616165279882146,-0.7489806604990035,-0.01193599868565798,-0.4724747836589813,-0.8812633752822876,0,0,0,-1,1
2015-10-05 22:32:03.541,39,7046C08F-1AFD-4AA7-9EF7-651803F23386,1444109516.619915,37.87140919645066,-122.2584902225184,87.72093,-1,-1,10,65,-9999,1444109523.537279,-18.01907348632812,-19.11688232421875,-20.60359191894531,120.278694152832,106.5675048828125,10,433515.3569652084,-0.019683837890625,-0.4223175048828125,-0.84027099609375,433515.3613355417,0.01059538639688025,0.02934563836769213,0.5113061566387112,433515.3454113334,-1.362068031337896,-0.02673881609589675,0.4931005507962806,0.04635023698210716,-0.3055935502052307,0.5879170298576355,-0.01264324877411127,0.003876917529851198,0.06834445893764496,XArbitraryZVertical,-0.181436124004888,0.1637182362721539,0.6130381956304707,-0.7513064905324451,-0.0235505998134613,-0.4733593463897705,-0.8805545568466187,0,0,0,-1,1
2015-10-05 22:32:03.560,40,7046C08F-1AFD-4AA7-9EF7-651803F23386,1444109516.619915,37.87140919645066,-122.2584902225184,87.72093,-1,-1,10,65,-9999,1444109523.537279,-18.01907348632812,-19.11688232421875,-20.60359191894531,120.278694152832,106.5675048828125,10,433515.3767163334,0.053619384765625,-0.3989715576171875,-0.7992401123046875,433515.3772597917,-0.01418932228794218,-0.03449938770921347,0.5741618183706523,433515.3613355417,-1.351929135493615,-0.03244612612151868,0.493016676242806,0.007776377256959677,0.0281548798084259,0.544549286365509,0.008893235586583614,0.05096795037388802,0.04017447680234909,XArbitraryZVertical,-0.1804926760465531,0.1649231882790967,0.6097451497252393,-0.7539453483164291,-0.02857707440853119,-0.4732854664325714,-0.8804454803466797,0,0,0,-1,1
2015-10-05 22:32:03.606,41,7046C08F-1AFD-4AA7-9EF7-651803F23386,1444109516.619915,37.87140919645066,-122.2584902225184,87.72093,-1,-1,10,65,-9999,1444109523.589573,-19.17059326171875,-18.84591674804688,-20.07479858398438,119.1366195678711,105.4254302978516,10,433515.3962474167,0.0079345703125,-0.3555450439453125,-0.8112030029296875,433515.4091080833,-0.01964028040711636,-0.633203300789382,0.7640486662027191,433515.3931839584,-1.328203597595629,-0.04484543364569538,0.4920009264058163,-0.01196269132196903,-0.15595343708992,0.8048981428146362,0.09883921593427658,0.131051316857338,0.07740268111228943,XArbitraryZVertical,-0.1783189138627443,0.1671847227331144,0.6019456597579877,-0.7602059300886889,-0.03951304405927658,-0.4723904132843018,-0.880503237247467,0,0,0,-1,1
2015-10-05 22:32:03.609,42,7046C08F-1AFD-4AA7-9EF7-651803F23386,1444109516.619915,37.87140919645066,-122.2584902225184,87.72093,-1,-1,10,65,-9999,1444109523.589573,-19.17059326171875,-18.84591674804688,-20.07479858398438,119.1366195678711,105.4254302978516,10,433515.4158972917,0.012939453125,-0.43695068359375,-0.7562103271484375,433515.4250322917,-0.1300733150133231,-0.7709193554990145,0.8618119782389829,433515.4091080833,-1.313429337048044,-0.05953445869355797,0.4909305392018114,-0.02245926111936569,-0.6343939900398254,0.7972914576530457,0.03202532604336739,0.07691548019647598,0.08933176100254059,XArbitraryZVertical,-0.1747512924027597,0.1711605115954099,0.5976833665400356,-0.7635055064865982,-0.05247210338711739,-0.4714467227458954,-0.8803321123123169,0,0,0,-1,1
2015-10-05 22:32:03.619,43,7046C08F-1AFD-4AA7-9EF7-651803F23386,1444109516.619915,37.87140919645066,-122.2584902225184,87.72093,-1,-1,10,65,-9999,1444109523.615264,-20.1358642578125,-18.55801391601562,-19.727783203125,118.1967926025391,104.4856033325195,10,433515.4355414167,0.002777099609375,-0.4679412841796875,-0.8555908203125,433515.4409565,-0.1996412079567,-0.8440143389900924,0.9407960098485529,433515.4250322917,-1.298179935748571,-0.07858804519159927,0.4886195297946135,-0.1328922808170319,-0.7721100449562073,0.8950546979904175,0.08225985616445541,0.03245672211050987,0.1240460947155952,XArbitraryZVertical,-0.1695059497237539,0.1764639388866071,0.5936289954701428,-0.766637350393265,-0.06932040303945541,-0.4694074094295502,-0.8802564144134521,0,0,0,-1,1
2015-10-05 22:32:03.639,44,7046C08F-1AFD-4AA7-9EF7-651803F23386,1444109516.619915,37.87140919645066,-122.2584902225184,87.72093,-1,-1,10,65,-9999,1444109523.615264,-20.1358642578125,-18.55801391601562,-19.727783203125,118.1967926025391,104.4856033325195,10,433515.455294,-0.04296875,-0.5281219482421875,-0.9518280029296875,433515.4568808334,0.01113547546594832,-0.8231399497338332,0.9040017762280181,433515.4409565,-1.281349958278817,-0.09939828551370455,0.4842023841952331,-0.2024607956409454,-0.8452052474021912,0.9740385413169861,0.09060441702604294,-0.00243870378471911,0.02508716285228729,XArbitraryZVertical,-0.1631341294383151,0.1817918157741268,0.5891362564885838,-0.7702320837387853,-0.08782731741666794,-0.4655025899410248,-0.8806779980659485,0,0,0,-1,1
2015-10-05 22:32:03.659,45,7046C08F-1AFD-4AA7-9EF7-651803F23386,1444109516.619915,37.87140919645066,-122.2584902225184,87.72093,-1,-1,10,65,-9999,1444109523.640968,-20.47454833984375,-18.21932983398438,-19.19900512695312,117.7855453491211,104.0743560791016,10,433515.4748522083,-0.049041748046875,-0.615203857421875,-0.9011077880859375,433515.4887292917,0.1443068457753606,-0.1294432110994104,0.6938426798621592,433515.4728050834,-1.2480936807745,-0.1394201795363006,0.481368882006117,0.1461009383201599,-0.6149865984916687,0.8798330426216125,0.08084890246391296,-0.1036421954631805,-0.04682969301939011,XArbitraryZVertical,-0.1534430787559319,0.1938415246359966,0.5795764456403564,-0.7765126068310856,-0.123176783323288,-0.462992936372757,-0.8777613639831543,0,0,0,-1,1
2015-10-05 22:32:03.711,46,7046C08F-1AFD-4AA7-9EF7-651803F23386,1444109516.619915,37.87140919645066,-122.2584902225184,87.72093,-1,-1,10,65,-9999,1444109523.692138,-21.93093872070312,-17.30484008789062,-18.80239868164062,115.6647567749023,101.9535675048828,10,433515.4944749167,-0.1630859375,-0.4613037109375,-0.9060821533203125,433515.504653375,0.001311606836864025,0.3204057096957602,0.5182823071141737,433515.4887292917,-1.233411482900269,-0.150959752901769,0.4818095977510777,0.1414870172739029,-0.1306338757276535,0.727084755897522,-0.02690485492348671,-0.06664577126502991,-0.0554235577583313,XArbitraryZVertical,-0.1517247032173814,0.1973315602158236,0.5747272462979418,-0.7795694081601685,-0.1332666575908661,-0.4633835256099701,-0.8760797381401062,0,0,0,-1,1
2015-10-05 22:32:03.713,47,7046C08F-1AFD-4AA7-9EF7-651803F23386,1444109516.619915,37.87140919645066,-122.2584902225184,87.72093,-1,-1,10,65,-9999,1444109523.692138,-21.93093872070312,-17.30484008789062,-18.80239868164062,115.6647567749023,101.9535675048828,10,433515.51411725,-0.10394287109375,-0.423980712890625,-0.8697052001953125,433515.5205776667,-0.1735709914136963,0.4635389003787229,0.6164938291618978,433515.504653375,-1.223704990347043,-0.1526248207348133,0.4815201400999196,-0.001508208923041821,0.3192150592803955,0.55152428150177,0.04201792553067207,0.02671037241816521,0.008954249322414398,XArbitraryZVertical,-0.1520890034369961,0.1971658044193791,0.5710749624104835,-0.7822198974131825,-0.1347455829381943,-0.4631269872188568,-0.8759891390800476,0,0,0,-1,1
2015-10-05 22:32:03.718,48,7046C08F-1AFD-4AA7-9EF7-651803F23386,1444109516.619915,37.87140919645066,-122.2584902225184,87.72093,-1,-1,10,65,-9999,1444109523.692138,-21.93093872070312,-17.30484008789062,-18.80239868164062,115.6647567749023,101.9535675048828,10,433515.53387075,-0.13909912109375,-0.4281463623046875,-0.846832275390625,433515.536501875,-0.2901111870316728,0.5178926866466951,0.5769536101413824,433515.5205776667,-1.213226866829442,-0.1498668442060169,0.4771949117972601,-0.1763921082019806,0.4623449444770813,0.6497359871864319,0.0286840908229351,0.03530855104327202,0.008624727837741375,XArbitraryZVertical,-0.1521585286736996,0.1941206281749959,0.5669199965859475,-0.7859813492315282,-0.1326269656419754,-0.4592892527580261,-0.8783299326896667,0,0,0,-1,1
2015-10-05 22:32:03.737,49,7046C08F-1AFD-4AA7-9EF7-651803F23386,1444109516.619915,37.87140919645066,-122.2584902225184,87.72093,-1,-1,10,65,-9999,1444109523.718338,-22.625244140625,-16.67825317382812,-18.78585815429688,118.8413162231445,105.130126953125,10,433515.553512375,-0.161529541015625,-0.4150848388671875,-0.7978668212890625,433515.55242625,-0.3540262542452475,0.6572849349464235,0.5020761729327144,433515.536501875,-1.202803978478525,-0.1467416412764743,0.471685891468083,-0.2929323017597198,0.5166987180709839,0.6101956367492676,-0.008849775418639183,0.02624236606061459,0.03439754247665405,XArbitraryZVertical,-0.1518188617018159,0.1906203673205459,0.56277962663374,-0.7898696098978346,-0.1302493512630463,-0.4543887376785278,-0.8812298178672791,0,0,0,-1,1
2015-10-05 22:32:03.757,50,7046C08F-1AFD-4AA7-9EF7-651803F23386,1444109516.619915,37.87140919645066,-122.2584902225184,87.72093,-1,-1,10,65,-9999,1444109523.744413,-22.59136962890625,-16.5089111328125,-18.81892395019531,118.9775161743164,105.2663269042969,10,433515.57318525,-0.1516571044921875,-0.376739501953125,-0.7728271484375,433515.584274625,-0.2610377237273868,0.5677028537788831,0.4394676525499327,433515.5683504583,-1.186109348214323,-0.1332961796606024,0.4584072890265663,-0.3507421314716339,0.7117700576782227,0.4627892076969147,-0.03522287681698799,0.0492098443210125,0.09116555005311966,XArbitraryZVertical,-0.151737754243954,0.1804824389074932,0.555619318736606,-0.7973010195840078,-0.1191808134317398,-0.4425203800201416,-0.8888034820556641,0,0,0,-1,1
2015-10-05 22:32:03.807,51,7046C08F-1AFD-4AA7-9EF7-651803F23386,1444109516.619915,37.87140919645066,-122.2584902225184,87.72093,-1,-1,10,65,-9999,1444109523.796418,-22.62527465820312,-15.86541748046875,-19.3807373046875,117.8273315429688,104.1161422729492,10,433515.5926934584,-0.18994140625,-0.3476104736328125,-0.685546875,433515.6001989167,-0.1775375035412604,0.2070429315743572,0.4810957898650702,433515.584274625,-1.178658522985635,-0.1265762956648718,0.4528065447600949,-0.2638586163520813,0.5665090084075928,0.4727093577384949,-0.04251977056264877,0.07698681205511093,0.1571351438760757,XArbitraryZVertical,-0.1519795293049414,0.1757491122633543,0.5523373624577561,-0.8005859792952437,-0.1135166063904762,-0.4374909698963165,-0.8920289278030396,0,0,0,-1,1
2015-10-05 22:32:03.811,52,7046C08F-1AFD-4AA7-9EF7-651803F23386,1444109516.619915,37.87140919645066,-122.2584902225184,87.72093,-1,-1,10,65,-9999,1444109523.796418,-22.62527465820312,-15.86541748046875,-19.3807373046875,117.8273315429688,104.1161422729492,10,433515.6123410834,-0.2887420654296875,-0.24676513671875,-0.531768798828125,433515.616123,-0.1338502100712735,-0.3073833845974907,0.3627536994535462,433515.6001989167,-1.170294998262262,-0.1248869552305061,0.4486039605584841,-0.1803583949804306,0.2058491259813309,0.514337420463562,-0.07770387083292007,0.08609757572412491,0.2084889560937881,XArbitraryZVertical,-0.151456530278699,0.1733291816733269,0.5490077756814116,-0.8034975895780678,-0.1122375354170799,-0.4337080419063568,-0.894035816192627,0,0,0,-1,1
2015-10-05 22:32:03.816,53,7046C08F-1AFD-4AA7-9EF7-651803F23386,1444109516.619915,37.87140919645066,-122.2584902225184,87.72093,-1,-1,10,65,-9999,1444109523.796418,-22.62527465820312,-15.86541748046875,-19.3807373046875,117.8273315429688,104.1161422729492,10,433515.632100125,-0.2708282470703125,-0.20782470703125,-0.4478607177734375,433515.6320472084,-0.1232092836197529,-0.8972583860318285,0.4543246293231577,433515.616123,-1.162645840656523,-0.1303297325657558,0.4454755132376975,-0.1366710811853409,-0.3085771799087524,0.3959951996803284,-0.1714644134044647,0.1841218918561935,0.3629838526248932,XArbitraryZVertical,-0.1493476294294652,0.1741233966669506,0.5464496646358616,-0.8054620365581117,-0.1172776445746422,-0.4308870434761047,-0.8947526812553406,0,0,0,-1,1
2015-10-05 22:32:03.836,54,7046C08F-1AFD-4AA7-9EF7-651803F23386,1444109516.619915,37.87140919645066,-122.2584902225184,87.72093,-1,-1,10,65,-9999,1444109523.822119,-23.37039184570312,-15.3912353515625,-19.3807373046875,116.8075637817383,103.0963745117188,10,433515.6516437083,-0.2634735107421875,-0.0857696533203125,-0.280181884765625,433515.6638957917,-0.01420743178335472,-2.771181034421724,1.151513571095002,433515.6479715417,-1.144758425980143,-0.1714646692898666,0.4394572139445754,-0.0631617084145546,-1.700056195259094,0.706380307674408,-0.1416376978158951,0.2786587774753571,0.524158239364624,XArbitraryZVertical,-0.1372878924456953,0.1878724168940205,0.5423584439982595,-0.8072814303463375,-0.1544133275747299,-0.4254483282566071,-0.891711950302124,0,0,0,-1,1
2015-10-05 22:32:03.855,55,7046C08F-1AFD-4AA7-9EF7-651803F23386,1444109516.619915,37.87140919645066,-122.2584902225184,87.72093,-1,-1,10,65,-9999,1444109523.848078,-23.77682495117188,-14.8831787109375,-18.91806030273438,116.1794586181641,102.4682693481445,10,433515.6714105834,-0.35723876953125,0.077789306640625,-0.1665802001953125,433515.6798200417,0.004009655337223301,-3.722137802777256,1.490255943844284,433515.6638957917,-1.12755666482817,-0.2169511724424528,0.4357692936679063,-0.01702829077839851,-2.772374868392944,1.184754729270935,-0.0826035737991333,0.4169504642486572,0.6639810800552368,XArbitraryZVertical,-0.125151519463455,0.2041808233325324,0.5384633307928671,-0.8079013120120011,-0.1951369047164917,-0.4221079349517822,-0.8852945566177368,0,0,0,-1,1
2015-10-05 22:32:03.909,56,7046C08F-1AFD-4AA7-9EF7-651803F23386,1444109516.619915,37.87140919645066,-122.2584902225184,87.72093,-1,-1,10,65,-9999,1444109523.899418,-26.943603515625,-13.10507202148438,-16.29067993164062,113.7775497436523,100.0663604736328,10,433515.6909277083,-0.3053131103515625,0.2153778076171875,0.013031005859375,433515.69574425,-0.1320272763051143,-4.063224822550245,1.862616464298073,433515.6798200417,-1.103231607041087,-0.2819556449697634,0.4302246454154895,0.001188802183605731,-3.723331451416016,1.523497104644775,-0.1043591052293777,0.494864284992218,0.706403374671936,XArbitraryZVertical,-0.1080535863014132,0.227667810880566,0.5324508071226235,-0.8080766847092824,-0.2528796494007111,-0.417074978351593,-0.8729835748672485,0,0,0,-1,1
2015-10-05 22:32:03.913,57,7046C08F-1AFD-4AA7-9EF7-651803F23386,1444109516.619915,37.87140919645066,-122.2584902225184,87.72093,-1,-1,10,65,-9999,1444109523.899418,-26.943603515625,-13.10507202148438,-16.29067993164062,113.7775497436523,100.0663604736328,10,433515.7105775417,-0.281646728515625,0.5174102783203125,0.2728424072265625,433515.7116682917,-0.7031573520908203,-4.053929591397542,2.312696281159754,433515.69574425,-1.074508928563306,-0.3572745157810621,0.4204615717343313,-0.1348481029272079,-4.064418792724609,1.895857453346252,0.0139484666287899,0.6235596537590027,0.8682851195335388,XArbitraryZVertical,-0.08749716659584858,0.2543957268547165,0.524403450890478,-0.8078539971368225,-0.3192615807056427,-0.4081818759441376,-0.8552541136741638,0,0,0,-1,1
2015-10-05 22:32:03.915,58,7046C08F-1AFD-4AA7-9EF7-651803F23386,1444109516.619915,37.87140919645066,-122.2584902225184,87.72093,-1,-1,10,65,-9999,1444109523.899418,-26.943603515625,-13.10507202148438,-16.29067993164062,113.7775497436523,100.0663604736328,10,433515.7302194167,-0.325897216796875,0.7117462158203125,0.0311279296875,433515.7435167917,-1.548573312762621,-5.701630819938983,3.646799638700005,433515.7275925833,-1.009970366892885,-0.5164814352629769,0.3631899685525872,-1.369606733322144,-4.646027565002441,2.984901189804077,0.2221849858760834,0.9317960143089294,0.9869571328163147,XArbitraryZVertical,-0.03129564566224555,0.3043041679224903,0.5004253965364031,-0.8099345519540404,-0.4616106450557709,-0.3552579283714294,-0.8128390908241272,0,0,0,-1,1
2015-10-05 22:32:03.933,59,7046C08F-1AFD-4AA7-9EF7-651803F23386,1444109516.619915,37.87140919645066,-122.2584902225184,87.72093,-1,-1,10,65,-9999,1444109523.925925,-29.11123657226562,-11.61483764648438,-13.77896118164062,112.1816024780273,98.47041320800781,10,433515.749865,-0.6386566162109375,0.8522186279296875,-0.23895263671875,433515.759441,-1.372058463079951,-6.802461239696469,4.040202860190946,433515.7435167917,-0.9742429435195019,-0.613442458329312,0.313306999297591,-1.551394104957581,-5.702824592590332,3.680040121078491,0.1063921004533768,1.108712911605835,0.7256661653518677,XArbitraryZVertical,0.008167891676044623,0.3331666901794846,0.4824004969899869,-0.8100759239751875,-0.5476610064506531,-0.30820631980896,-0.7778664827346802,0,0,0,-1,1
2015-10-05 22:32:03.953,60,7046C08F-1AFD-4AA7-9EF7-651803F23386,1444109516.619915,37.87140919645066,-122.2584902225184,87.72093,-1,-1,10,65,-9999,1444109523.925925,-29.11123657226562,-11.61483764648438,-13.77896118164062,112.1816024780273,98.47041320800781,10,433515.7695084584,-0.8431396484375,0.8884735107421875,-0.2917022705078125,433515.77536525,-1.198435273708889,-6.856586793059021,4.144465883183657,433515.759441,-0.9376963118033741,-0.7270491464553913,0.2557737308266924,-1.374895215034485,-6.803614616394043,4.073434829711914,0.004388134926557541,1.105212688446045,0.4838803112506866,XArbitraryZVertical,0.05301528049083466,0.3684737564658995,0.4593362009480322,-0.8064903752240574,-0.6430447697639465,-0.252994030714035,-0.7228329181671143,0,0,0,-1,1
2015-10-05 22:32:03.987,61,7046C08F-1AFD-4AA7-9EF7-651803F23386,1444109523.966167,37.87141867229481,-122.2584765506742,87.65091,-1,-1,10,65,-9999,1444109523.976909,-33.46340942382812,-6.7884521484375,-5.665451049804688,108.7173538208008,95.00616455078125,10,433515.7891537917,-0.8856658935546875,1.059967041015625,-0.2157135009765625,433515.7912895,-1.421103770347069,-5.868609422390297,4.414157815189365,433515.77536525,-0.9040930255743208,-0.844945196187631,0.1950703822342929,-1.201272010803223,-6.85774040222168,4.177698135375977,-0.1093902215361595,1.082309126853943,0.3594809174537659,XArbitraryZVertical,0.09834987810658163,0.4058764684071637,0.4324260278991977,-0.7991240981631679,-0.7337494492530823,-0.193835586309433,-0.6511831879615784,0,0,0,-1,1
2015-10-05 22:32:04.021,62,7046C08F-1AFD-4AA7-9EF7-651803F23386,1444109523.966167,37.87141867229481,-122.2584765506742,87.65091,-1,-1,10,65,-9999,1444109524.003084,-33.2493896484375,4.98309326171875,-0.41265869140625,84.47533416748047,70.76414489746094,25,433515.80879825,-1.009765625,1.234344482421875,-0.1903533935546875,433515.8072137084,-1.927988014311812,-4.771724742103873,5.069215814832265,433515.7912895,-0.8772655546150082,-0.9489501303983854,0.1279094108300489,-1.423940420150757,-5.869762897491455,4.447390079498291,-0.07950153946876526,1.187527894973755,0.3620643615722656,XArbitraryZVertical,0.1421684943999388,0.4369201211558515,0.4034489976858455,-0.791276078998678,-0.8061643242835999,-0.1275609135627747,-0.5777778625488281,0,0,0,-1,1
2015-10-05 22:32:04.024,63,7046C08F-1AFD-4AA7-9EF7-651803F23386,1444109523.966167,37.87141867229481,-122.2584765506742,87.65091,-1,-1,10,65,-9999,1444109524.003084,-33.2493896484375,4.98309326171875,-0.41265869140625,84.47533416748047,70.76414489746094,25,433515.8284450417,-1.365524291992188,1.222503662109375,-0.487884521484375,433515.8390621667,-3.09262404536207,-3.06207519081388,5.746114132258795,433515.8231379167,-0.8502888832305785,-1.100489393392672,-0.04731804785860351,-2.724142551422119,-4.085913181304932,5.627781391143799,-0.3043774962425232,1.202165603637695,0.1548926830291748,XArbitraryZVertical,0.2339791494670229,0.4678967922763139,0.3402057456514928,-0.7814002815573855,-0.8904314637184143,0.04730039089918137,-0.4526526927947998,0,0,0,-1,1
2015-10-05 22:32:04.032,64,7046C08F-1AFD-4AA7-9EF7-651803F23386,1444109523.966167,37.87141867229481,-122.2584765506742,87.65091,-1,-1,10,65,-9999,1444109524.003084,-33.2493896484375,4.98309326171875,-0.41265869140625,84.47533416748047,70.76414489746094,25,433515.8480908333,-1.568191528320312,1.217391967773438,-0.8915557861328125,433515.854986375,-3.069104338195035,-1.961286849001618,5.619579892018078,433515.8390621667,-0.8546469823902255,-1.155921311813453,-0.1504214482512497,-3.095460653305054,-3.063228607177734,5.779345989227295,-0.538465678691864,1.012086749076843,-0.279774934053421,XArbitraryZVertical,0.2830498390714485,0.4697028587410284,0.3087828946497818,-0.7771197700894368,-0.904832661151886,0.149854838848114,-0.3985240161418915,0,0,0,-1,1
2015-10-05 22:32:04.052,65,7046C08F-1AFD-4AA7-9EF7-651803F23386,1444109523.966167,37.87141867229481,-122.2584765506742,87.65091,-1,-1,10,65,-9999,1444109524.029408,-33.67276000976562,9.20037841796875,4.065048217773438,76.3414306640625,62.63024139404297,25,433515.8678409167,-1.86065673828125,1.202316284179688,-1.190582275390625,433515.87091075,-2.783988442420024,-1.197762026585317,5.331404556782783,433515.854986375,-0.8655762797787264,-1.194878882208831,-0.2535161917675193,-3.071941137313843,-1.962440133094788,5.652811527252197,-0.6677518486976624,0.9665826559066772,-0.5361643433570862,XArbitraryZVertical,0.3289167494936989,0.4627289209506447,0.2794144914290029,-0.7743534461716095,-0.9004396796226501,0.2508093118667603,-0.3553914427757263,0,0,0,-1,1
2015-10-05 22:32:04.078,66,7046C08F-1AFD-4AA7-9EF7-651803F23386,1444109523.966167,37.87141867229481,-122.2584765506742,87.65091,-1,-1,10,65,-9999,1444109524.05531,-33.01226806640625,13.248291015625,7.716598510742188,71.47845458984375,57.76726531982422,25,433515.887373875,-1.888107299804688,1.006744384765625,-1.0611572265625,433515.886835,-2.842023249946704,-0.4190846165147932,5.117487207486604,433515.87091075,-0.8782115340776189,-1.221725769189747,-0.3511112945920691,-2.786825180053711,-1.198915362358093,5.364636421203613,-0.9782952666282654,0.8583747744560242,-0.8694242835044861,XArbitraryZVertical,0.3695926714117803,0.4503579131391629,0.2522200356521675,-0.7726344937467432,-0.8823614716529846,0.3439415097236633,-0.3211580216884613,0,0,0,-1,1
2015-10-05 22:32:04.113,67,7046C08F-1AFD-4AA7-9EF7-651803F23386,1444109523.966167,37.87141867229481,-122.2584765506742,87.65091,-1,-1,10,65,-9999,1444109524.106708,-29.28659057617188,20.63275146484375,12.11167907714844,60.42487335205078,46.71368026733398,25,433515.907016875,-1.731658935546875,0.8393707275390625,-1.149658203125,433515.9186833334,-3.17539589099006,0.6826851001591633,4.22875093694303,433515.9027590417,-0.9190666151718088,-1.249386732845008,-0.5331478029605408,-3.252952337265015,0.3326443135738373,4.625595092773438,-1.121382117271423,0.504524827003479,-0.7889595031738281,XArbitraryZVertical,0.4417462171285289,0.4108893789504225,0.2089760460876314,-0.769648757603087,-0.8171097636222839,0.5082467794418335,-0.2720603942871094,0,0,0,-1,1
2015-10-05 22:32:04.115,68,7046C08F-1AFD-4AA7-9EF7-651803F23386,1444109523.966167,37.87141867229481,-122.2584765506742,87.65091,-1,-1,10,65,-9999,1444109524.106708,-29.28659057617188,20.63275146484375,12.11167907714844,60.42487335205078,46.71368026733398,25,433515.9266634583,-1.740280151367188,0.829498291015625,-1.481109619140625,433515.9346075417,-2.112914990929716,0.6248199359939215,3.604245786589956,433515.9186833334,-0.9522656929876661,-1.257903387769717,-0.615481327873876,-3.178232669830322,0.6815317273139954,4.261981964111328,-0.7879059314727783,0.1472883075475693,-1.05218505859375,XArbitraryZVertical,0.4746751787036244,0.3860307408988353,0.194847655527046,-0.7666147226210939,-0.7768523693084717,0.5773515701293945,-0.2513274848461151,0,0,0,-1,1
2015-10-05 22:32:04.130,69,7046C08F-1AFD-4AA7-9EF7-651803F23386,1444109523.966167,37.87141867229481,-122.2584765506742,87.65091,-1,-1,10,65,-9999,1444109524.106708,-29.28659057617188,20.63275146484375,12.11167907714844,60.42487335205078,46.71368026733398,25,433515.94630275,-1.756851196289062,0.735260009765625,-1.337570190429688,433515.9505317917,-1.328014572340003,0.07075965753118735,2.986909865891375,433515.9346075417,-0.9762709166838263,-1.261470360080791,-0.6871660861779045,-2.11575174331665,0.6236665844917297,3.637476921081543,-1.003922939300537,0.195149302482605,-1.245781302452087,XArbitraryZVertical,0.5006863989178328,0.3628346253879373,0.1811499888350507,-0.7647541082618475,-0.7363572120666504,0.63434898853302,-0.2353283315896988,0,0,0,-1,1
2015-10-05 22:32:04.150,70,7046C08F-1AFD-4AA7-9EF7-651803F23386,1444109523.966167,37.87141867229481,-122.2584765506742,87.65091,-1,-1,10,65,-9999,1444109524.133156,-27.03424072265625,23.32568359375,13.51612854003906,56.462646484375,42.7514533996582,25,433515.9660562917,-1.669113159179688,0.61181640625,-1.14666748046875,433515.9664559584,-1.028920010319275,0.469826890028509,2.486885392262457,433515.9505317917,-0.9865511011623994,-1.265000035556773,-0.7432869873844045,-1.330851197242737,0.06960628181695938,3.020140886306763,-1.054759383201599,0.05854840949177742,-1.115920782089233,XArbitraryZVertical,0.5187936400296406,0.346451201010683,0.166754203579054,-0.7635559966183169,-0.7020918130874634,0.6767116189002991,-0.2216494530439377,0,0,0,-1,1
2015-10-05 22:32:04.208,71,7046C08F-1AFD-4AA7-9EF7-651803F23386,1444109523.966167,37.87141867229481,-122.2584765506742,87.65091,-1,-1,10,65,-9999,1444109524.184379,-23.4271240234375,27.27197265625,14.292724609375,49.76609802246094,36.05490493774414,25,433515.9855921667,-1.520980834960938,0.4951171875,-1.181137084960938,433515.9983046667,-0.29330911086864,2.530593724705056,1.65159423742292,433515.982380375,-0.9955606767320511,-1.250014746287162,-0.8275437282601859,-0.7783544063568115,1.371547698974609,2.107611179351807,-0.9529399871826172,-0.1897779405117035,-0.9359424114227295,XArbitraryZVertical,0.5422866928692479,0.3150281240523158,0.147835946881153,-0.7647397966647153,-0.6421680450439453,0.7362714409828186,-0.2133648544549942,0,0,0,-1,1
2015-10-05 22:32:04.211,72,7046C08F-1AFD-4AA7-9EF7-651803F23386,1444109523.966167,37.87141867229481,-122.2584765506742,87.65091,-1,-1,10,65,-9999,1444109524.184379,-23.4271240234375,27.27197265625,14.292724609375,49.76609802246094,36.05490493774414,25,433516.0052347084,-1.4268798828125,0.52020263671875,-1.272659301757812,433516.0142287083,0.4531706816228264,3.295439208705927,1.34621860997124,433515.9983046667,-0.99208086550374,-1.213568896108074,-0.8575474958738026,-0.2961457073688507,2.52944016456604,1.68482494354248,-0.8700437545776367,-0.251387894153595,-1.02564799785614,XArbitraryZVertical,0.5472040760491546,0.2935499205388623,0.1470881964860593,-0.769909868595878,-0.6129884719848633,0.75624018907547,-0.228792279958725,0,0,0,-1,1
2015-10-05 22:32:04.213,73,7046C08F-1AFD-4AA7-9EF7-651803F23386,1444109523.966167,37.87141867229481,-122.2584765506742,87.65091,-1,-1,10,65,-9999,1444109524.210483,-22.24166870117188,28.864013671875,13.83006286621094,47.76458358764648,34.05339050292969,25,433516.0248791667,-1.294692993164062,0.488922119140625,-0.885955810546875,433516.0301529584,0.7173634522936301,3.267318091807453,1.163144128207596,433516.0142287083,-0.9741376298420286,-1.150240669649622,-0.8779285805465815,0.4503341019153595,3.294285774230957,1.379449248313904,-0.8437924981117249,-0.2492147833108902,-1.011879801750183,XArbitraryZVertical,0.5456036597581231,0.268191886050653,0.1512175267552475,-0.7794376295234835,-0.5830873847007751,0.769417405128479,-0.2607795298099518,0,0,0,-1,1
2015-10-05 22:32:04.229,74,7046C08F-1AFD-4AA7-9EF7-651803F23386,1444109523.966167,37.87141867229481,-122.2584765506742,87.65091,-1,-1,10,65,-9999,1444109524.210483,-22.24166870117188,28.864013671875,13.83006286621094,47.76458358764648,34.05339050292969,25,433516.0445443334,-1.229324340820312,0.3300933837890625,-0.54547119140625,433516.0460771667,0.4352148506051852,3.133409292192198,0.7131913441299119,433516.0301529584,-0.9447011040771276,-1.075181560077169,-0.8911691763081878,0.7145268321037292,3.266164541244507,1.196374535560608,-0.741813600063324,-0.2888849973678589,-0.5870569944381714,XArbitraryZVertical,0.5398896857631426,0.2430426489345318,0.1561166549606033,-0.7906181050604634,-0.5528793931007385,0.7778071165084839,-0.2988987863063812,0,0,0,-1,1
2015-10-05 22:32:04.249,75,7046C08F-1AFD-4AA7-9EF7-651803F23386,1444109523.966167,37.87141867229481,-122.2584765506742,87.65091,-1,-1,10,65,-9999,1444109524.236784,-21.42877197265625,29.91409301757812,12.90478515625,47.50678253173828,33.79558944702148,25,433516.0641680834,-0.8779296875,0.459442138671875,-0.3418731689453125,433516.0779258333,-0.5500562157638,1.54515115076187,0.367959114120215,433516.0620015833,-0.9110104536924901,-0.9539654849070238,-0.9017381719759807,0.1574580520391464,2.451266765594482,0.06988498568534851,-0.7871909737586975,-0.2115302085876465,-0.2481191009283066,XArbitraryZVertical,0.5294243695403371,0.2007930540370446,0.1721052361941978,-0.8060842226851094,-0.50594562292099,0.7844061851501465,-0.3587839603424072,0,0,0,-1,1
2015-10-05 22:32:04.277,76,7046C08F-1AFD-4AA7-9EF7-651803F23386,1444109523.966167,37.87141867229481,-122.2584765506742,87.65091,-1,-1,10,65,-9999,1444109524.262598,-21.44570922851562,31.1505126953125,11.89691162109375,47.76284790039062,34.05165481567383,25,433516.0838165,-0.736785888671875,0.2447967529296875,-0.459197998046875,433516.09385,-0.5011744265876137,0.8690563090362164,0.3310250645424511,433516.0779258333,-0.9136894231979542,-0.9276817785624016,-0.9087003539539311,-0.5528927445411682,1.543997764587402,0.4011892676353455,-0.3248586356639862,-0.6908507943153381,0.01134231686592102,XArbitraryZVertical,0.529583454572935,0.1876300750733352,0.1782732890159645,-0.8078087360223493,-0.4919596016407013,0.7887054085731506,-0.368672639131546,0,0,0,-1,1
2015-10-05 22:32:04.310,77,7046C08F-1AFD-4AA7-9EF7-651803F23386,1444109523.966167,37.87141867229481,-122.2584765506742,87.65091,-1,-1,10,65,-9999,1444109524.287804,-21.59811401367188,31.50616455078125,10.98812866210938,49.03224182128906,35.32104873657227,25,433516.1034659167,-0.7017822265625,0.1782684326171875,-0.1737823486328125,433516.1097740834,-0.5419820439708978,-0.08628322352525922,0.2930364031730158,433516.09385,-0.9190976841245994,-0.9140386367361729,-0.9184423396311348,-0.5040109753608704,0.867902934551239,0.3642551302909851,-0.28594771027565,-0.4615118503570557,0.0002797163324430585,XArbitraryZVertical,0.5319410153527395,0.1780961368253922,0.1814848047860309,-0.8077027843614064,-0.48077592253685,0.7946569919586182,-0.3706410527229309,0,0,0,-1,1
2015-10-05 22:32:04.312,78,7046C08F-1AFD-4AA7-9EF7-651803F23386,1444109523.966167,37.87141867229481,-122.2584765506742,87.65091,-1,-1,10,65,-9999,1444109524.287804,-21.59811401367188,31.50616455078125,10.98812866210938,49.03224182128906,35.32104873657227,25,433516.1231110001,-0.7727813720703125,0.308197021484375,0.1887969970703125,433516.125698375,-0.5814405039459478,-1.317513461845712,-0.06764748748132074,433516.1097740834,-0.9248292767967807,-0.9155117367156463,-0.9284233160457512,-0.5448185801506042,-0.08743655681610107,0.3262663781642914,-0.2267733663320541,-0.6224079132080078,0.1912984102964401,XArbitraryZVertical,0.5357331585521558,0.174498148406168,0.1807496958756013,-0.806145102615808,-0.4750088751316071,0.8006763458251953,-0.3650807440280914,0,0,0,-1,1
2015-10-05 22:32:04.327,79,7046C08F-1AFD-4AA7-9EF7-651803F23386,1444109523.966167,37.87141867229481,-122.2584765506742,87.65091,-1,-1,10,65,-9999,1444109524.313889,-21.68280029296875,31.96343994140625,10.57505798339844,49.47089004516602,35.75969696044922,25,433516.142766125,-0.7173919677734375,0.326629638671875,0.449432373046875,433516.1416225834,-0.6290104199691612,-1.66468873418673,-0.6551610639770853,433516.125698375,-0.9359488873151585,-0.9393415963553712,-0.9349469753218547,-0.5842770338058472,-1.318666815757751,-0.03441764414310455,-0.293434739112854,-0.4963705539703369,0.5393648147583008,XArbitraryZVertical,0.5408840690013352,0.1793335012843623,0.177054718191298,-0.8024559464443356,-0.4793466329574585,0.8045675754547119,-0.3505678474903107,0,0,0,-1,1
2015-10-05 22:32:04.346,80,7046C08F-1AFD-4AA7-9EF7-651803F23386,1444109523.966167,37.87141867229481,-122.2584765506742,87.65091,-1,-1,10,65,-9999,1444109524.34027,-21.95379638671875,31.96343994140625,10.83943176269531,49.57770156860352,35.86650848388672,25,433516.162470125,-0.4960174560546875,0.6106414794921875,0.15753173828125,433516.17347125,-0.5268899100734188,-0.6502693696868278,-0.547902517390253,433516.157547,-0.9781542979078782,-1.023773462726758,-0.9295227549706732,-0.4727981388568878,-1.385359048843384,-0.7493881583213806,-0.01169067434966564,-0.2701608240604401,0.5451844334602356,XArbitraryZVertical,0.5506637593398107,0.2029512723583177,0.1723403185019634,-0.7911251606519367,-0.5109228491783142,0.80133455991745,-0.3111604154109955,0,0,0,-1,1
2015-10-05 22:32:04.379,81,7046C08F-1AFD-4AA7-9EF7-651803F23386,1444109523.966167,37.87141867229481,-122.2584765506742,87.65091,-1,-1,10,65,-9999,1444109524.367486,-22.10617065429688,31.8787841796875,11.35163879394531,49.22762680053711,35.51643371582031,25,433516.1821735,-0.514312744140625,0.680694580078125,0.0086822509765625,433516.1893955,-0.6277483479285727,0.5926841037521534,-0.2968495172217913,433516.17347125,-0.9971245591842015,-1.054736010119924,-0.9255237368395125,-0.5297263860702515,-0.6514226794242859,-0.5146729946136475,-0.02788581512868404,-0.1993570029735565,0.4608815610408783,XArbitraryZVertical,0.5541397507098333,0.2110509455522264,0.1724207777999728,-0.7865479708496051,-0.5230938196182251,0.7989358305931091,-0.2967732846736908,0,0,0,-1,1
2015-10-05 22:32:04.410,82,7046C08F-1AFD-4AA7-9EF7-651803F23386,1444109523.966167,37.87141867229481,-122.2584765506742,87.65091,-1,-1,10,65,-9999,1444109524.39157,-21.98764038085938,31.48919677734375,11.69863891601562,49.43094253540039,35.71974945068359,25,433516.2017154584,-0.4969329833984375,0.7281951904296875,-0.3386688232421875,433516.2053195417,-0.3347098142266848,0.8289935778098274,-0.1022600595368626,433516.1893955,-1.015835945918735,-1.065885382870679,-0.9253501612786922,-0.6305848360061646,0.5915307998657227,-0.2636200785636902,0.01217867434024811,-0.1181368753314018,0.2996720969676971,XArbitraryZVertical,0.5570346502840577,0.210279506762803,0.1767197265915244,-0.7837506399690853,-0.5264914035797119,0.7988314628601074,-0.2909898459911346,0,0,0,-1,1
2015-10-05 22:32:04.412,83,7046C08F-1AFD-4AA7-9EF7-651803F23386,1444109523.966167,37.87141867229481,-122.2584765506742,87.65091,-1,-1,10,65,-9999,1444109524.39157,-21.98764038085938,31.48919677734375,11.69863891601562,49.43094253540039,35.71974945068359,25,433516.2213714167,-0.53009033203125,0.677947998046875,-0.3410491943359375,433516.2212437917,-0.2037898803028254,0.4056492351314525,0.08609840014560773,433516.2053195417,-1.027946618348818,-1.062390212706671,-0.9270496225501268,-0.3375462889671326,0.827840268611908,-0.06903074681758881,0.02735152654349804,-0.07165742665529251,-0.04650184512138367,XArbitraryZVertical,0.5584560166032625,0.205044847134636,0.1819414696420917,-0.7829308972110184,-0.5242844820022583,0.7998526096343994,-0.2921669781208038,0,0,0,-1,1
2015-10-05 22:32:04.424,84,7046C08F-1AFD-4AA7-9EF7-651803F23386,1444109523.966167,37.87141867229481,-122.2584765506742,87.65091,-1,-1,10,65,-9999,1444109524.417183,-22.00457763671875,31.404541015625,12.50825500488281,50.02689743041992,36.31570434570312,25,433516.241018625,-0.51043701171875,0.7453155517578125,-0.4557342529296875,433516.2530922917,-0.07698133446983046,-0.400355936148811,0.5310740024620423,433516.2371680417,-1.033740698207267,-1.056641804080881,-0.9347809908965294,-0.1850145161151886,-0.05388575792312622,0.324361652135849,0.006759359501302242,-0.08677186071872711,-0.0969884991645813,XArbitraryZVertical,0.5606774491594612,0.1989418452242786,0.1835605934199594,-0.7825397426112845,-0.5171963572502136,0.8044689893722534,-0.2921258807182312,0,0,0,-1,1
2015-10-05 22:32:04.444,85,7046C08F-1AFD-4AA7-9EF7-651803F23386,1444109523.966167,37.87141867229481,-122.2584765506742,87.65091,-1,-1,10,65,-9999,1444109524.417183,-22.00457763671875,31.404541015625,12.50825500488281,50.02689743041992,36.31570434570312,25,433516.2606707084,-0.4904022216796875,0.6929931640625,-0.444549560546875,433516.269016625,-0.15383137509792,-0.6636450962617507,1.065134740086608,433516.2530922917,-1.030442132413588,-1.05877932404496,-0.9425201820295561,-0.07981777191162109,-0.4015092253684998,0.5643029808998108,-0.0005170287331566215,-0.03716080263257027,-0.1753876954317093,XArbitraryZVertical,0.562699646068046,0.1984660179565807,0.1794098051318817,-0.7821716370809658,-0.5123766660690308,0.8090419173240662,-0.2879607081413269,0,0,0,-1,1
2015-10-05 22:32:04.464,86,7046C08F-1AFD-4AA7-9EF7-651803F23386,1444109523.966167,37.87141867229481,-122.2584765506742,87.65091,-1,-1,10,65,-9999,1444109524.443149,-22.00457763671875,31.13357543945312,12.83871459960938,50.38869857788086,36.67750549316406,25,433516.28043725,-0.6748504638671875,1.023651123046875,-0.3839569091796875,433516.284940875,0.08170098855366889,-0.7542154765098195,0.7147181343828544,433516.269016625,-1.02148107261821,-1.061013299951587,-0.9560153355217477,-0.1566677987575531,-0.664798378944397,1.098363637924194,0.01304011233150959,-0.1239066198468208,-0.1630880981683731,XArbitraryZVertical,0.5657543193780185,0.197967972450045,0.1713264833726562,-0.7819066236350196,-0.5034423470497131,0.8168997764587402,-0.2814614772796631,0,0,0,-1,1
2015-10-05 22:32:04.515,87,7046C08F-1AFD-4AA7-9EF7-651803F23386,1444109523.966167,37.87141867229481,-122.2584765506742,87.65091,-1,-1,10,65,-9999,1444109524.497844,-21.37799072265625,31.31985473632812,13.38394165039062,48.8480224609375,35.1368293762207,25,433516.2999780417,-0.4117584228515625,0.8811798095703125,-0.247711181640625,433516.3008649584,0.2796532197470407,-1.366052768505714,0.5297645261540503,433516.284940875,-1.009040095351382,-1.061651320809468,-0.96861020861064,0.07886457443237305,-0.7553687691688538,0.7479468584060669,-0.1802521049976349,0.1995518505573273,-0.107853926718235,XArbitraryZVertical,0.5680661863817303,0.198114405911948,0.1625903481113225,-0.7820587374110312,-0.4945983588695526,0.8240992426872253,-0.2761029899120331,0,0,0,-1,1
2015-10-05 22:32:04.517,88,7046C08F-1AFD-4AA7-9EF7-651803F23386,1444109523.966167,37.87141867229481,-122.2584765506742,87.65091,-1,-1,10,65,-9999,1444109524.497844,-21.37799072265625,31.31985473632812,13.38394165039062,48.8480224609375,35.1368293762207,25,433516.3196303333,-0.5098876953125,0.6494903564453125,-0.143035888671875,433516.3327134583,0.5021099950785585,-1.201542650068794,0.3809886297534277,433516.31678925,-0.9801691388990308,-1.07727035403882,-0.9782966367698371,0.4788774847984314,-1.351812601089478,0.45138218998909,-0.04442733898758888,-0.07344383746385574,0.02582656405866146,XArbitraryZVertical,0.5690065773213023,0.2096577095376809,0.1440135841902127,-0.7820071913769224,-0.4917970299720764,0.8295473456382751,-0.2645503282546997,0,0,0,-1,1
2015-10-05 22:32:04.523,89,7046C08F-1AFD-4AA7-9EF7-651803F23386,1444109523.966167,37.87141867229481,-122.2584765506742,87.65091,-1,-1,10,65,-9999,1444109524.497844,-21.37799072265625,31.31985473632812,13.38394165039062,48.8480224609375,35.1368293762207,25,433516.3393329167,-0.4215545654296875,0.552978515625,-0.038238525390625,433516.3486377083,0.3138852260828102,-1.116963317008967,0.4401422312540497,433516.3327134583,-0.9614468321735018,-1.082458945576366,-0.980622642714867,0.4992736279964447,-1.202695846557617,0.414217084646225,0.0004451410786714405,-0.1550780385732651,0.2033040374517441,XArbitraryZVertical,0.5680213298966096,0.2163497923158733,0.1345297873202019,-0.7825894661129618,-0.4914577007293701,0.8308440446853638,-0.2610890865325928,0,0,0,-1,1
2015-10-05 22:32:04.543,90,7046C08F-1AFD-4AA7-9EF7-651803F23386,1444109523.966167,37.87141867229481,-122.2584765506742,87.65091,-1,-1,10,65,-9999,1444109524.521469,-21.05624389648438,31.675537109375,14.02833557128906,47.07057952880859,33.3593864440918,25,433516.358934125,-0.417999267578125,0.53509521484375,0.01068115234375,433516.364562125,-0.03112995629804522,-1.360915530762951,0.4098820633680244,433516.3486377083,-0.9458398813559699,-1.086880099740903,-0.9837167414663028,0.311048835515976,-1.118116497993469,0.4733706116676331,0.0687747597694397,-0.2795834243297577,0.2194779366254807,XArbitraryZVertical,0.5674659602403523,0.2216396971123647,0.1262542140354922,-0.7828908621709273,-0.4903293251991272,0.8325619101524353,-0.2577164471149445,0,0,0,-1,1
2015-10-05 22:32:04.563,91,7046C08F-1AFD-4AA7-9EF7-651803F23386,1444109523.966167,37.87141867229481,-122.2584765506742,87.65091,-1,-1,10,65,-9999,1444109524.54725,-20.37884521484375,32.08203125,14.292724609375,45.27768707275391,31.56649398803711,25,433516.3788009167,-0.44061279296875,0.5099639892578125,-0.2870941162109375,433516.3804861667,-0.3254172462350713,-1.612557622164538,0.3707517048392721,433516.364562125,-0.9370506762505491,-1.099912277320916,-0.9897310238113886,-0.03396632894873619,-1.362068772315979,0.4431103467941284,0.071175716817379,-0.3007831573486328,0.2597096562385559,XArbitraryZVertical,0.568953233353782,0.2275477307541055,0.117335299224428,-0.781502831754864,-0.4891749918460846,0.8358783721923828,-0.2490285038948059,0,0,0,-1,1
2015-10-05 22:32:04.616,92,7046C08F-1AFD-4AA7-9EF7-651803F23386,1444109523.966167,37.87141867229481,-122.2584765506742,87.65091,-1,-1,10,65,-9999,1444109524.597699,-19.37969970703125,32.77642822265625,15.16841125488281,41.3699836730957,27.65879058837891,25,433516.3982326667,-0.4394073486328125,0.6494903564453125,-0.358642578125,433516.4123347084,0.5826996465093374,-0.5815659388332906,0.3259381605442908,433516.3964105417,-0.9333070106737318,-1.145431070879952,-1.001008442646014,0.3749817907810211,-1.308289170265198,0.1866309493780136,0.01733691804111004,-0.232274204492569,-0.2991058826446533,XArbitraryZVertical,0.5740785606918207,0.2431668631514829,0.0994882855392188,-0.7755035550270323,-0.4913817048072815,0.8420154452323914,-0.222607359290123,0,0,0,-1,1
2015-10-05 22:32:04.618,93,7046C08F-1AFD-4AA7-9EF7-651803F23386,1444109523.966167,37.87141867229481,-122.2584765506742,87.65091,-1,-1,10,65,-9999,1444109524.597699,-19.37969970703125,32.77642822265625,15.16841125488281,41.3699836730957,27.65879058837891,25,433516.417890375,-0.5390167236328125,0.726776123046875,-0.308258056640625,433516.4282589167,0.02855681005281066,-0.4049418995459274,0.3069144019295277,433516.4123347084,-0.914268973053591,-1.141315409308381,-1.001397628129234,0.5798633098602295,-0.5827192068099976,0.3591661155223846,0.016378004103899,-0.1811230033636093,-0.1389577388763428,XArbitraryZVertical,0.5716537815843459,0.2469134904809631,0.09316076087208267,-0.7768955881278908,-0.4901634156703949,0.8422253131866455,-0.2244913578033447,0,0,0,-1,1
2015-10-05 22:32:04.621,94,7046C08F-1AFD-4AA7-9EF7-651803F23386,1444109523.966167,37.87141867229481,-122.2584765506742,87.65091,-1,-1,10,65,-9999,1444109524.597699,-19.37969970703125,32.77642822265625,15.16841125488281,41.3699836730957,27.65879058837891,25,433516.43754125,-0.5184326171875,0.753204345703125,-0.389373779296875,433516.4441831667,-0.367385202905303,-0.3198325974291751,0.4383973281078298,433516.4282589167,-0.9037512868630528,-1.140369279623058,-1.004965719287859,0.02572047710418701,-0.4060951471328735,0.3401422202587128,-0.04275161772966385,-0.0650450810790062,-0.1013888269662857,XArbitraryZVertical,0.5712876642876589,0.2485569720121532,0.08826878169490018,-0.7772119778252399,-0.4872166514396667,0.8441435694694519,-0.2236996740102768,0,0,0,-1,1
2015-10-05 22:32:04.641,95,7046C08F-1AFD-4AA7-9EF7-651803F23386,1444109523.966167,37.87141867229481,-122.2584765506742,87.65091,-1,-1,10,65,-9999,1444109524.624935,-18.87167358398438,33.0135498046875,15.66409301757812,40.33604431152344,26.62485313415527,25,433516.4571942083,-0.493255615234375,0.8228607177734375,-0.437164306640625,433516.4601075417,-0.5697803857452539,-0.5997372195831192,0.5439956600711068,433516.4441831667,-0.9050282192178333,-1.146351200788666,-1.012865481052462,-0.3702215254306793,-0.3209858536720276,0.4716250896453857,-0.0359785407781601,-0.09514805674552917,-0.1713456511497498,XArbitraryZVertical,0.5738693429577656,0.2483141379559817,0.0846676333919099,-0.7757869926469735,-0.4824540615081787,0.8483524322509766,-0.2180281281471252,0,0,0,-1,1
2015-10-05 22:32:04.661,96,7046C08F-1AFD-4AA7-9EF7-651803F23386,1444109523.966167,37.87141867229481,-122.2584765506742,87.65091,-1,-1,10,65,-9999,1444109524.650749,-18.160400390625,33.04742431640625,16.29193115234375,39.2205696105957,25.50937843322754,25,433516.4768442917,-0.3487396240234375,1.02691650390625,-0.3599395751953125,433516.476031625,-0.521282358082148,-1.438825775821001,0.8233032015086551,433516.4601075417,-0.913340475720011,-1.160853125368095,-1.023971927118147,-0.5726166963577271,-0.6008904576301575,0.5772233009338379,-0.01636181585490704,-0.03131935000419617,-0.2299235761165619,XArbitraryZVertical,0.5785030771642263,0.2484226796733507,0.08033564755980099,-0.7727655179073419,-0.476893812417984,0.8541800379753113,-0.2072407305240631,0,0,0,-1,1
2015-10-05 22:32:04.717,97,7046C08F-1AFD-4AA7-9EF7-651803F23386,1444109523.966167,37.87141867229481,-122.2584765506742,87.65091,-1,-1,10,65,-9999,1444109524.702411,-15.78952026367188,33.45391845703125,17.74594116210938,35.16567993164062,21.45448684692383,25,433516.4964920417,-0.3444976806640625,0.97412109375,-0.1983795166015625,433516.507880125,-0.07022249793931835,-2.709824466067388,1.449561777123437,433516.4919558333,-0.9221256618185086,-1.218027641446949,-1.056733301439635,-0.4338872730731964,-2.186867237091064,1.128817558288574,0.1176432147622108,0.1906780451536179,-0.02507388591766357,XArbitraryZVertical,0.5901140744035184,0.2584986432249852,0.05687538685019882,-0.7626985125279732,-0.4614389836788177,0.8707538247108459,-0.1698876619338989,0,0,0,-1,1
2015-10-05 22:32:04.719,98,7046C08F-1AFD-4AA7-9EF7-651803F23386,1444109523.966167,37.87141867229481,-122.2584765506742,87.65091,-1,-1,10,65,-9999,1444109524.702411,-15.78952026367188,33.45391845703125,17.74594116210938,35.16567993164062,21.45448684692383,25,433516.5161429167,-0.11651611328125,0.7976531982421875,-0.1414642333984375,433516.523804375,-0.2653240815018693,-3.323169107240268,2.213867438371349,433516.507880125,-0.9141124439357958,-1.251502140177626,-1.077488563583996,-0.07305878400802612,-2.710977792739868,1.482789039611816,0.2345656156539917,0.01821550168097019,-0.02079046331346035,XArbitraryZVertical,0.595026402184213,0.2676228974085952,0.03736846288889571,-0.7569182013055856,-0.4496077299118042,0.8807713389396667,-0.1486431360244751,0,0,0,-1,1
2015-10-05 22:32:04.721,99,7046C08F-1AFD-4AA7-9EF7-651803F23386,1444109523.966167,37.87141867229481,-122.2584765506742,87.65091,-1,-1,10,65,-9999,1444109524.702411,-15.78952026367188,33.45391845703125,17.74594116210938,35.16567993164062,21.45448684692383,25,433516.5357931667,-0.37030029296875,0.6788177490234375,0.1751861572265625,433516.539728625,-0.9806145292029816,-3.060995811624071,2.654098619205807,433516.523804375,-0.8981442086206413,-1.286779399584648,-1.108518194635771,-0.2681603729724884,-3.32432222366333,2.247094631195068,0.3116047978401184,-0.09738560020923615,-0.01649211905896664,XArbitraryZVertical,0.6007844205483476,0.2767165026985257,0.01089835860837075,-0.7499115167407074,-0.4281209111213684,0.8950387835502625,-0.1249721124768257,0,0,0,-1,1
2015-10-05 22:32:04.740,100,7046C08F-1AFD-4AA7-9EF7-651803F23386,1444109523.966167,37.87141867229481,-122.2584765506742,87.65091,-1,-1,10,65,-9999,1444109524.729145,-13.63876342773438,33.64019775390625,18.81997680664062,29.79041290283203,16.07921981811523,25,433516.5555531667,-0.8222198486328125,0.5826263427734375,-0.0703582763671875,433516.555652875,-1.849348595747298,-3.469594763978896,2.510505234286479,433516.539728625,-0.9001324243861752,-1.339276830057505,-1.15043931061382,-0.9834508299827576,-3.062149047851562,2.687325716018677,0.02689791098237038,-0.234125554561615,0.2688243389129639,XArbitraryZVertical,0.6106283644555102,0.2833970903307541,-0.01785709233103469,-0.7392565278494021,-0.3971982002258301,0.9129433035850525,-0.09363818168640137,0,0,0,-1,1
2015-10-05 22:32:04.760,101,7046C08F-1AFD-4AA7-9EF7-651803F23386,1444109523.966167,37.87141867229481,-122.2584765506742,87.65091,-1,-1,10,65,-9999,1444109524.729145,-13.63876342773438,33.64019775390625,18.81997680664062,29.79041290283203,16.07921981811523,25,433516.57509,-0.9593658447265625,0.741912841796875,0.2782745361328125,433516.5875015417,-2.27762244960341,-1.299806902706102,0.9387986390309935,433516.57157725,-1.052009459256314,-1.588671092016122,-1.227630842563867,-2.816479921340942,-3.154600858688354,1.814687371253967,-0.5285895466804504,-0.3350200951099396,0.3421152830123901,XArbitraryZVertical,0.6418679160680644,0.3016829073030378,-0.06775101986907332,-0.7017141875937446,-0.3364159464836121,0.9416943192481995,0.006013996433466673,0,0,0,-1,1
2015-10-05 22:32:04.816,102,7046C08F-1AFD-4AA7-9EF7-651803F23386,1444109523.966167,37.87141867229481,-122.2584765506742,87.65091,-1,-1,10,65,-9999,1444109524.780047,-9.269561767578125,33.36920166015625,21.33148193359375,19.9221076965332,6.210915565490723,25,433516.5947345417,-0.610015869140625,0.822174072265625,0.1059722900390625,433516.6034255833,-0.8551743155380693,0.8696113118073889,0.04457545769352828,433516.5875015417,-1.184245163838507,-1.746851306793757,-1.244042872380135,-2.28046178817749,-1.300952076911926,0.9720199108123779,-0.5275126099586487,-0.1282417178153992,0.1669734120368958,XArbitraryZVertical,0.6581852371402048,0.3080594767572638,-0.07930920910193663,-0.682350058065785,-0.3160085082054138,0.9470893740653992,0.05621689558029175,0,0,0,-1,1
2015-10-05 22:32:04.819,103,7046C08F-1AFD-4AA7-9EF7-651803F23386,1444109523.966167,37.87141867229481,-122.2584765506742,87.65091,-1,-1,10,65,-9999,1444109524.809589,-7.660736083984375,33.0135498046875,22.702880859375,16.64628601074219,2.935094833374023,25,433516.6143895417,-0.3803558349609375,0.8173675537109375,-0.0508575439453125,433516.619349875,-0.1406913382794691,1.36147399564354,-0.4059443133802332,433516.6034255833,-1.253564212471385,-1.809557436506116,-1.245039906592605,-0.8580136299133301,0.8684660792350769,0.07779669761657715,-0.2990689277648926,-0.1252348572015762,0.03028655610978603,XArbitraryZVertical,0.666461708028791,0.3060582610511564,-0.07690731118492056,-0.6754571770734371,-0.3109469413757324,0.94740891456604,0.07568573206663132,0,0,0,-1,1
2015-10-05 22:32:04.821,104,7046C08F-1AFD-4AA7-9EF7-651803F23386,1444109523.966167,37.87141867229481,-122.2584765506742,87.65091,-1,-1,10,65,-9999,1444109524.809589,-7.660736083984375,33.0135498046875,22.702880859375,16.64628601074219,2.935094833374023,25,433516.634035125,-0.4574432373046875,0.9954681396484375,-0.0743865966796875,433516.635274125,-0.223604864077451,1.214145260979267,0.05044826052937101,433516.619349875,-1.265540681562282,-1.800053594954902,-1.239584419548431,-0.1435306519269943,1.360328793525696,-0.3727232217788696,-0.06367495656013489,-0.1282813847064972,-0.124758206307888,XArbitraryZVertical,0.6682447183883498,0.3006648106507155,-0.06769996482543347,-0.6771014567589569,-0.3166808784008026,0.9456489682197571,0.07390066236257553,0,0,0,-1,1
2015-10-05 22:32:04.838,105,7046C08F-1AFD-4AA7-9EF7-651803F23386,1444109523.966167,37.87141867229481,-122.2584765506742,87.65091,-1,-1,10,65,-9999,1444109524.8323,-6.6954345703125,32.59011840820312,23.77688598632812,16.82554626464844,3.114353895187378,25,433516.6536813334,-0.695770263671875,1.103500366210938,0.0315093994140625,433516.6671227083,-1.468588198899291,0.5079630905223347,0.6665514039593542,433516.6511983334,-1.309051428140911,-1.807566498155787,-1.241813940292461,-0.9807214736938477,0.6201769113540649,0.5958403348922729,-0.2525534331798553,0.1426176577806473,-0.1055986881256104,XArbitraryZVertical,0.6745586818049499,0.2878577664117407,-0.05629776612890484,-0.6774504060423383,-0.3140664398670197,0.9463716149330139,0.07578301429748535,0,0,0,-1,1
2015-10-05 22:32:04.858,106,7046C08F-1AFD-4AA7-9EF7-651803F23386,1444109523.966167,37.87141867229481,-122.2584765506742,87.65091,-1,-1,10,65,-9999,1444109524.8323,-6.6954345703125,32.59011840820312,23.77688598632812,16.82554626464844,3.114353895187378,25,433516.6733328333,-0.6752471923828125,0.9394378662109375,0.150848388671875,433516.6830469584,-1.015046006304398,0.962945786950851,1.425588799938871,433516.6671227083,-1.382660388742606,-1.869846538525768,-1.246114194183106,-1.4714275598526,0.5068178176879883,0.6997721791267395,-0.4531924426555634,0.05650502443313599,0.05724618211388588,XArbitraryZVertical,0.6835433550133304,0.2824186953723929,-0.05419227182143114,-0.6708735797422117,-0.3048489391803741,0.9477521777153015,0.09398367255926132,0,0,0,-1,1
2015-10-05 22:32:04.912,107,7046C08F-1AFD-4AA7-9EF7-651803F23386,1444109523.966167,37.87141867229481,-122.2584765506742,87.65091,-1,-1,10,65,-9999,1444109524.884063,-6.114898681640625,30.63934326171875,21.73957824707031,19.1512565612793,5.440065383911133,25,433516.6929739167,-0.4622039794921875,0.9301910400390625,0.191436767578125,433516.6989712084,-0.4359639978198244,1.221704377417348,1.183271234461978,433516.6830469584,-1.461553971399122,-1.932676036540204,-1.257666955455681,-1.017885327339172,0.9618005156517029,1.458809614181519,-0.3871605098247528,-0.01193640008568764,0.04179305955767632,XArbitraryZVertical,0.6930594762732949,0.2723898449888601,-0.05363436645997097,-0.6652786554739227,-0.2880866825580597,0.9513742923736572,0.109055332839489,0,0,0,-1,1
2015-10-05 22:32:04.915,108,7046C08F-1AFD-4AA7-9EF7-651803F23386,1444109523.966167,37.87141867229481,-122.2584765506742,87.65091,-1,-1,10,65,-9999,1444109524.910086,-6.21649169921875,30.30059814453125,22.43348693847656,19.74694061279297,6.035749435424805,25,433516.7126250833,-0.1455841064453125,0.7317047119140625,0.1700286865234375,433516.714895375,-0.200750947182936,0.6248923739755717,0.6273659179960372,433516.6989712084,-1.519367991462933,-1.968622399853512,-1.274680164143018,-0.4388032555580139,1.220559120178223,1.21649181842804,-0.1931849718093872,-0.02628599293529987,0.078386090695858,XArbitraryZVertical,0.699776797227455,0.2585300233906919,-0.05302972133792751,-0.6638241557238912,-0.2690190076828003,0.9564770460128784,0.113050676882267,0,0,0,-1,1
2015-10-05 22:32:04.918,109,7046C08F-1AFD-4AA7-9EF7-651803F23386,1444109523.966167,37.87141867229481,-122.2584765506742,87.65091,-1,-1,10,65,-9999,1444109524.910086,-6.21649169921875,30.30059814453125,22.43348693847656,19.74694061279297,6.035749435424805,25,433516.7322779584,0.1498260498046875,0.494110107421875,-0.025787353515625,433516.7308195833,-0.3331177765270354,-0.4336606297930149,0.9209203060010736,433516.714895375,-1.549010790889984,-1.98285618568789,-1.28449890272372,-0.2035901993513107,0.6237471103668213,0.6605863571166992,0.1131805032491684,-0.2275913506746292,0.05692723765969276,XArbitraryZVertical,0.7030322851108707,0.2495923299373895,-0.0516692042141953,-0.6639123197110487,-0.2587645947933197,0.9592960476875305,0.113101452589035,0,0,0,-1,1
2015-10-05 22:32:04.980,110,7046C08F-1AFD-4AA7-9EF7-651803F23386,1444109523.966167,37.87141867229481,-122.2584765506742,87.65091,-1,-1,10,65,-9999,1444109524.910086,-6.21649169921875,30.30059814453125,22.43348693847656,19.74694061279297,6.035749435424805,25,433516.7519277083,0.2752838134765625,0.7716827392578125,-1.132583618164062,433516.7626681667,3.657783846616037,-3.824025286077617,1.523525750078208,433516.7467437917,-1.613901181390164,-2.073929831305218,-1.314945981106254,0.5954659581184387,-2.522395610809326,1.565662026405334,0.5232205986976624,-0.4829666316509247,-0.6480847001075745,XArbitraryZVertical,0.7071909898416392,0.246763517373065,-0.07303046121365779,-0.6585250352988997,-0.2217069417238235,0.9674484729766846,0.1220226585865021,0,0,0,-1,1
2015-10-05 22:32:05.164,111,7046C08F-1AFD-4AA7-9EF7-651803F23386,1444109523.966167,37.87141867229481,-122.2584765506742,87.65091,-1,-1,10,65,-9999,1444109524.988795,-5.1834716796875,30.48690795898438,22.58216857910156,19.05120277404785,5.340010643005371,25,433516.7715778333,0.0390167236328125,0.87738037109375,-0.0720367431640625,433516.7785923334,5.436669194661474,-1.198651522389404,1.190280141818849,433516.7626681667,-1.51115949099289,-2.032922176794035,-1.357408421902376,3.65494441986084,-3.825170278549194,1.556745886802673,0.3303515315055847,-0.01064425613731146,-0.8704810738563538,XArbitraryZVertical,0.6943474136771369,0.2551297512000666,-0.1075671901801553,-0.664243764569326,-0.1895586848258972,0.977319061756134,0.09441903978586197,0,0,0,-1,1
2015-10-05 22:32:05.214,112,7046C08F-1AFD-4AA7-9EF7-651803F23386,1444109523.966167,37.87141867229481,-122.2584765506742,87.65091,-1,-1,10,65,-9999,1444109525.029778,-2.423065185546875,33.38311767578125,20.31880187988281,8.602641105651855,354.8914489746094,25,433516.7912262917,-0.1500091552734375,1.122268676757812,0.59844970703125,433516.7785923334,5.436669194661474,-1.198651522389404,1.190280141818849,433516.7626681667,-1.51115949099289,-2.032922176794035,-1.357408421902376,3.65494441986084,-3.825170278549194,1.556745886802673,0.3303515315055847,-0.01064425613731146,-0.8704810738563538,XArbitraryZVertical,0.6943474136771369,0.2551297512000666,-0.1075671901801553,-0.664243764569326,-0.1895586848258972,0.977319061756134,0.09441903978586197,0,0,0,-1,1
2015-10-05 22:32:05.914,113,7046C08F-1AFD-4AA7-9EF7-651803F23386,1444109523.966167,37.87141867229481,-122.2584765506742,87.65091,-1,-1,10,65,-9999,1444109525.377418,6.806610107421875,31.29986572265625,21.75617980957031,350.8098449707031,337.0986633300781,25,433516.8108767084,-0.1616668701171875,1.34014892578125,0.44061279296875,433516.8104408333,0.3120029038243421,1.834715857137858,-0.9080588358326449,433516.7945165834,-0.8928176777645299,-1.489832688992324,-1.411457125540266,0.9598082900047302,-1.874342441558838,0.1222195774316788,0.00813690572977066,0.1349363327026367,0.6112818121910095,XArbitraryZVertical,0.6528462875701523,0.2595682166973123,-0.1550243194865581,-0.6945383546314761,-0.1581460684537888,0.9873323440551758,-0.01283213123679161,0,0,0,-1,1
2015-10-05 22:32:06.304,114,7046C08F-1AFD-4AA7-9EF7-651803F23386,1444109523.966167,37.87141867229481,-122.2584765506742,87.65091,-1,-1,10,65,-9999,1444109525.576079,7.6195068359375,29.30133056640625,22.41700744628906,348.9238891601562,335.2127075195312,25,433516.8305199583,0.2708892822265625,2.5118408203125,-0.19921875,433516.8422895001,1.903937805455634,-1.366387261538628,1.804904964527729,433516.8263652084,-0.8093682754779703,-1.356298241459819,-1.382811915315586,1.194950461387634,2.527597665786743,-1.039503574371338,0.125238761305809,0.4522942304611206,0.3016804158687592,XArbitraryZVertical,0.6467125129059004,0.248744143908146,-0.1315056225034533,-0.7089397349368562,-0.1825965493917465,0.9823828935623169,-0.03977855294942856,0,0,0,-1,1
2015-10-05 22:32:06.535,115,7046C08F-1AFD-4AA7-9EF7-651803F23386,1444109523.966167,37.87141867229481,-122.2584765506742,87.65091,-1,-1,10,65,-9999,1444109525.665559,7.92431640625,29.16583251953125,23.14390563964844,349.5820922851562,335.8709106445312,25,433516.8501650417,-0.5190887451171875,3.620330810546875,0.467926025390625,433516.85821375,-0.9055578612529515,-0.3104257798267973,1.423891833692273,433516.8422895001,-0.6477442792936428,-1.195578491661403,-1.382080384756158,1.901098608970642,-1.36753249168396,1.838124513626099,0.3319253623485565,3.214256763458252,-0.007147276308387518,XArbitraryZVertical,0.6374437273775843,0.2434964560325066,-0.1373530354349217,-0.7179896336183523,-0.1745461970567703,0.982245922088623,-0.06874994188547134,0,0,0,-1,1
2015-10-05 22:32:06.653,116,7046C08F-1AFD-4AA7-9EF7-651803F23386,1444109523.966167,37.87141867229481,-122.2584765506742,87.65091,-1,-1,10,65,-9999,1444109525.73983,8.632659912109375,30.01748657226562,21.67111206054688,348.1823120117188,334.4711303710938,15,433516.8698121667,0.21966552734375,0.50286865234375,-0.3025665283203125,433516.8741380417,-1.041810775259694,-1.031617259871307,1.203493948199495,433516.85821375,-0.5736976045212685,-1.140404297333784,-1.407713148657602,-0.9083970785140991,-0.3115710020065308,1.457111358642578,-0.3715344965457916,2.633599519729614,0.5356675386428833,XArbitraryZVertical,0.6389483955360722,0.2405705546935517,-0.1534970816522629,-0.7143594347249678,-0.1475542634725571,0.9867314100265503,-0.0677415132522583,0,0,0,-1,1
2015-10-05 22:32:06.657,117,7046C08F-1AFD-4AA7-9EF7-651803F23386,1444109523.966167,37.87141867229481,-122.2584765506742,87.65091,-1,-1,10,65,-9999,1444109525.779033,9.072967529296875,30.45782470703125,21.20852661132812,346.9808044433594,333.2696228027344,15,433516.8894625001,-0.10888671875,0.8504180908203125,0.0532073974609375,433516.8900622083,-0.9167892105181427,-1.126669740233979,0.175609374912043,433516.8741380417,-0.6342716505357318,-1.209027585301253,-1.434510186498096,-1.04461669921875,-1.032743692398071,1.236750960350037,0.346735954284668,-0.4878587424755096,-0.2544800937175751,XArbitraryZVertical,0.6474295211621112,0.2383102908185019,-0.1616022680291777,-0.7056400834601498,-0.127070426940918,0.990727424621582,-0.04808644205331802,0,0,0,-1,1
2015-10-05 22:32:06.663,118,7046C08F-1AFD-4AA7-9EF7-651803F23386,1444109523.966167,37.87141867229481,-122.2584765506742,87.65091,-1,-1,10,65,-9999,1444109525.817115,9.8350830078125,32.13461303710938,19.44088745117188,344.1389770507812,330.4277954101562,15,433516.909109125,-0.0866851806640625,0.8594970703125,0.0197906494140625,433516.9219107084,-1.75412061306879,-0.133462720132667,-0.175173149125488,433516.9059865,-0.883530514542426,-1.488619125269347,-1.450238717394501,-1.532949924468994,-0.5737497210502625,-0.08646766841411591,0.005754708778113127,-0.07417788356542587,0.06312516331672668,XArbitraryZVertical,0.657778147920555,0.2497837366258837,-0.1708157844770973,-0.6897521009818749,-0.1198599338531494,0.9927417039871216,-0.009871985763311386,0,0,0,-1,1
2015-10-05 22:32:06.822,119,7046C08F-1AFD-4AA7-9EF7-651803F23386,1444109523.966167,37.87141867229481,-122.2584765506742,87.65091,-1,-1,10,65,-9999,1444109525.999889,9.428619384765625,37.55447387695312,10.78446960449219,336.7913208007812,323.0801391601562,15,433516.9287564583,0.0054779052734375,0.7550811767578125,-0.1733245849609375,433516.937835,-1.07932965501284,-0.632800897148671,-0.08933627139892607,433516.9219107084,-1.109177642774736,-1.716859048095859,-1.447265228147487,-1.756926536560059,-0.1345891058444977,-0.141916424036026,0.0730617344379425,-0.2019897103309631,-0.03184952214360237,XArbitraryZVertical,0.6665727403180823,0.2542587969664516,-0.168048941790144,-0.6802887616249801,-0.121905118227005,0.9923797249794006,0.01793350838124752,0,0,0,-1,1
2015-10-05 22:32:07.024,120,7046C08F-1AFD-4AA7-9EF7-651803F23386,1444109523.966167,37.87141867229481,-122.2584765506742,87.65091,-1,-1,10,65,-9999,1444109526.179563,11.02056884765625,39.24819946289062,5.8284912109375,325.32470703125,311.613525390625,15,433516.9484032083,0.043914794921875,0.780914306640625,0.0821075439453125,433516.9537592917,-0.409195766755111,-0.5599727623988191,0.04268674384844408,433516.937835,-1.281513945238432,-1.89402978627479,-1.440374803680827,-1.082135558128357,-0.6339272856712341,-0.05607961490750313,0.1287950426340103,-0.23642598092556,-0.214633584022522,XArbitraryZVertical,0.6735531758956838,0.2588061394600876,-0.1666628216048603,-0.6719888431464703,-0.1233171299099922,0.9915071725845337,0.04130899533629417,0,0,0,-1,1
2015-10-05 22:32:07.144,121,7046C08F-1AFD-4AA7-9EF7-651803F23386,1444109523.966167,37.87141867229481,-122.2584765506742,87.65091,-1,-1,10,65,-9999,1444109526.335113,12.49395751953125,39.4683837890625,4.39129638671875,321.1777648925781,307.4665832519531,15,433516.9680521667,0.06390380859375,0.8787078857421875,0.09063720703125,433516.9696835,-0.5009379378828146,-0.261246781872958,0.3227170672058399,433516.9537592917,-1.342158760072201,-1.964774062708176,-1.438074240171572,-0.4120016992092133,-0.5610991716384888,0.07594329118728638,0.16610948741436,-0.2102910429239273,0.03130969777703285,XArbitraryZVertical,0.67550926369908,0.2628424591184236,-0.1693829173658005,-0.6677653058118388,-0.122194692492485,0.9912053346633911,0.05079784616827965,0,0,0,-1,1
2015-10-05 22:32:07.150,122,7046C08F-1AFD-4AA7-9EF7-651803F23386,1444109523.966167,37.87141867229481,-122.2584765506742,87.65091,-1,-1,10,65,-9999,1444109526.361008,12.341552734375,39.45144653320312,4.176528930664062,320.8887939453125,307.1776123046875,15,433516.9876980417,0.0553131103515625,1.311569213867188,-0.1773681640625,433517.001532,0.2998588892535808,-1.010783350663617,0.6079932852784738,433516.98560775,-1.486136875499412,-2.117559920899109,-1.441833811756503,-0.2553079724311829,-0.2398497611284256,0.5853458642959595,0.2021871209144592,0.04808380827307701,-0.05786249786615372,XArbitraryZVertical,0.6811957761798989,0.2634481075221635,-0.174742628388588,-0.6603275119071782,-0.1098561882972717,0.9916958808898926,0.06686518341302872,0,0,0,-1,1
2015-10-05 22:32:07.156,123,7046C08F-1AFD-4AA7-9EF7-651803F23386,1444109523.966167,37.87141867229481,-122.2584765506742,87.65091,-1,-1,10,65,-9999,1444109526.438781,11.81655883789062,40.213623046875,4.193069458007812,320.4470520019531,306.7358703613281,15,433517.007352,-0.0395050048828125,0.8304290771484375,0.1889801025390625,433517.0174562917,-0.1398598993871463,-0.3117935793626619,0.9179032108021228,433517.001532,-1.514202778637033,-2.15766951903479,-1.451529987797854,0.2970529794692993,-1.01190972328186,0.6412494778633118,0.13810695707798,0.06586539745330811,-0.2376566678285599,XArbitraryZVertical,0.6806749001828833,0.2638672373732312,-0.1825284081705206,-0.65858874991363,-0.09907497465610504,0.9928961992263794,0.06588847935199738,0,0,0,-1,1
2015-10-05 22:32:07.162,124,7046C08F-1AFD-4AA7-9EF7-651803F23386,1444109523.966167,37.87141867229481,-122.2584765506742,87.65091,-1,-1,10,65,-9999,1444109526.464797,11.42703247070312,39.92568969726562,4.473892211914062,319.8397521972656,306.1285705566406,15,433517.0269969584,-0.1147613525390625,1.112396240234375,-0.0578460693359375,433517.0333805,-0.4066913300660004,-0.4361794475520118,0.4574109667104506,433517.0174562917,-1.572091308586993,-2.227819501941074,-1.464734733350623,-0.1426658183336258,-0.312919944524765,0.9511592984199524,-0.144951343536377,0.4116403758525848,0.01345268171280622,XArbitraryZVertical,0.6806153241400867,0.2628522596076158,-0.1919148919762297,-0.6563841439299313,-0.08382368087768555,0.9943807125091553,0.064657062292099,0,0,0,-1,1
2015-10-05 22:32:07.202,125,7046C08F-1AFD-4AA7-9EF7-651803F23386,1444109523.966167,37.87141867229481,-122.2584765506742,87.65091,-1,-1,10,65,-9999,1444109526.594755,12.81573486328125,38.84170532226562,7.678726196289062,316.5491638183594,302.8379821777344,15,433517.046637875,-0.1212921142578125,0.940338134765625,0.0926513671875,433517.0493047917,-0.3214715067640099,-0.3763009336026703,0.3490053966421211,433517.0333805,-1.680247894883198,-2.34075939463163,-1.467952133253815,-0.4094972312450409,-0.4373058080673218,0.4906669855117798,-0.04105585440993309,0.1176800429821014,-0.129310667514801,XArbitraryZVertical,0.6834812711941304,0.2618886301896967,-0.1961133699851978,-0.6525390742455889,-0.07370549440383911,0.9947161674499512,0.07146460562944412,0,0,0,-1,1
2015-10-05 22:32:07.308,126,7046C08F-1AFD-4AA7-9EF7-651803F23386,1444109523.966167,37.87141867229481,-122.2584765506742,87.65091,-1,-1,10,65,-9999,1444109526.645299,13.64556884765625,38.31668090820312,8.157806396484375,314.711669921875,301.00048828125,15,433517.0662852083,-0.1058807373046875,0.89849853515625,0.156585693359375,433517.0493047917,-0.3214715067640099,-0.3763009336026703,0.3490053966421211,433517.0333805,-1.680247894883198,-2.34075939463163,-1.467952133253815,-0.4094972312450409,-0.4373058080673218,0.4906669855117798,-0.04105585440993309,0.1176800429821014,-0.129310667514801,XArbitraryZVertical,0.6834812711941304,0.2618886301896967,-0.1961133699851978,-0.6525390742455889,-0.07370549440383911,0.9947161674499512,0.07146460562944412,0,0,0,-1,1
2015-10-05 22:32:07.690,127,7046C08F-1AFD-4AA7-9EF7-651803F23386,1444109523.966167,37.87141867229481,-122.2584765506742,87.65091,-1,-1,10,65,-9999,1444109526.933782,16.76174926757812,34.04849243164062,13.74148559570312,311.7268981933594,298.0157165527344,15,433517.0859349584,-0.095245361328125,0.9013214111328125,0.16864013671875,433517.0970775417,-0.4471306322705267,-0.5714400677365913,0.2190577828322497,433517.0811532917,-1.90255315890041,-2.582661686154935,-1.465982925374858,-0.3563207983970642,-0.5327990055084229,0.2769583463668823,-0.05046301707625389,-0.09531166404485703,0.0771624967455864,XArbitraryZVertical,0.6887541845416407,0.2645145438777828,-0.2065321742550169,-0.6426462404395007,-0.05547875538468361,0.9945120811462402,0.0887005403637886,0,0,0,-1,1
2015-10-05 22:32:07.836,128,7046C08F-1AFD-4AA7-9EF7-651803F23386,1444109523.966167,37.87141867229481,-122.2584765506742,87.65091,-1,-1,10,65,-9999,1444109527.113483,16.28756713867188,35.13247680664062,12.12255859375,313.3961486816406,299.6849670410156,15,433517.1055785417,-0.06890869140625,0.9485015869140625,0.1280059814453125,433517.1130017917,-0.5259375636676065,-0.5343443642806596,0.1847722469585696,433517.0970775417,-1.967488381392917,-2.656300914207477,-1.462246155811886,-0.4499365091323853,-0.5725663900375366,0.2523133456707001,-0.03399806097149849,-0.07632856816053391,0.06107773259282112,XArbitraryZVertical,0.6904990163208331,0.2666932821700096,-0.2100956503197698,-0.6387062074397616,-0.05053563043475151,0.9941142201423645,0.09582839906215668,0,0,0,-1,1
2015-10-05 22:32:08.080,129,7046C08F-1AFD-4AA7-9EF7-651803F23386,1444109523.966167,37.87141867229481,-122.2584765506742,87.65091,-1,-1,10,65,-9999,1444109527.29471,13.29000854492188,39.48532104492188,4.40777587890625,317.1002502441406,303.3890686035156,15,433517.1252283333,-0.024749755859375,0.967987060546875,0.0999603271484375,433517.1289260417,-0.5890669983596077,-0.5068232575757807,0.1151183339119832,433517.1130017917,-2.029583045745162,-2.726746728701918,-1.456491252139157,-0.5287434458732605,-0.535470724105835,0.218027725815773,-0.02293841168284416,-0.04497269913554192,0.02362409234046936,XArbitraryZVertical,0.692676161918041,0.2690551602220588,-0.213202396930117,-0.6343136396228983,-0.04597027972340584,0.9934743046760559,0.1043818891048431,0,0,0,-1,1
2015-10-05 22:32:08.317,130,7046C08F-1AFD-4AA7-9EF7-651803F23386,1444109523.966167,37.87141867229481,-122.2584765506742,87.65091,-1,-1,10,65,-9999,1444109527.605309,12.883544921875,39.55303955078125,-1.539398193359375,304.3887023925781,290.6775207519531,15,433517.1448757917,0.0066070556640625,0.965362548828125,0.075531005859375,433517.1448502917,-0.631087152987205,-0.4674838409014572,0.04328728667425694,433517.1289260417,-2.079652905012987,-2.784570530650767,-1.449105921427727,-0.5918728709220886,-0.5079495906829834,0.1483736783266068,0.0176744107156992,-0.02461779490113258,-0.0137752927839756,XArbitraryZVertical,0.6950327874164242,0.271656463734925,-0.2156358595061068,-0.6297883503386473,-0.04242416843771935,0.9926048517227173,0.1137356162071228,0,0,0,-1,1
2015-10-05 22:32:08.819,131,7046C08F-1AFD-4AA7-9EF7-651803F23386,1444109523.966167,37.87141867229481,-122.2584765506742,87.65091,-1,-1,10,65,-9999,1444109527.916676,13.45932006835938,39.72244262695312,1.863677978515625,294.4866943359375,280.7755126953125,15,433517.1645249584,0.0390472412109375,0.980804443359375,0.0685882568359375,433517.1766988334,-0.5002662886558966,-0.2821731027704736,-0.004613393956344265,433517.1607745833,-2.144533948497799,-2.863242989482851,-1.431149264095265,-0.60336834192276,-0.4121727347373962,0.03632446378469467,0.05492397770285606,-0.01297026220709085,-0.06544619798660278,XArbitraryZVertical,0.6999636982349471,0.2774326320859778,-0.2186920866468814,-0.6206897188170238,-0.03824612125754356,0.9902651906013489,0.1338360905647278,0,0,0,-1,1
2015-10-05 22:32:08.971,132,7046C08F-1AFD-4AA7-9EF7-651803F23386,1444109523.966167,37.87141867229481,-122.2584765506742,87.65091,-1,-1,10,65,-9999,1444109528.071033,15.40695190429688,38.82473754882812,5.712799072265625,298.7371215820312,285.0259399414062,15,433517.1841659167,0.0532989501953125,0.98004150390625,0.0445556640625,433517.1926230417,-0.4097622211189708,-0.176416312722337,0.05056277645624441,433517.1766988334,-2.162899218221848,-2.886331627087395,-1.422919637234372,-0.5030721426010132,-0.283299446105957,0.02864163368940353,0.0840318575501442,-0.004390717949718237,-0.08998239785432816,XArbitraryZVertical,0.7021478081170772,0.2797687423062513,-0.2193256585530042,-0.6169393502485269,-0.0372026301920414,0.9890861511230469,0.1425641924142838,0,0,0,-1,1
2015-10-05 22:32:09.062,133,7046C08F-1AFD-4AA7-9EF7-651803F23386,1444109523.966167,37.87141867229481,-122.2584765506742,87.65091,-1,-1,10,65,-9999,1444109528.122914,16.32150268554688,37.9779052734375,6.274490356445312,297.0997314453125,283.3885498046875,15,433517.20381475,0.0301666259765625,0.9842681884765625,0.0185546875,433517.2085473334,-0.4233177110674742,-0.1706460415884623,0.1156293945251694,433517.1926230417,-2.180684277620726,-2.907537704988938,-1.41631047249633,-0.4125680327415466,-0.1775426417589188,0.0838177353143692,0.08898555487394333,-0.008049270138144493,-0.105120949447155,XArbitraryZVertical,0.7040624599804711,0.2813082992827038,-0.2199162226783131,-0.6138391875759024,-0.03568660095334053,0.9880907535552979,0.1496766209602356,0,0,0,-1,1
2015-10-05 22:32:09.268,134,7046C08F-1AFD-4AA7-9EF7-651803F23386,1444109523.966167,37.87141867229481,-122.2584765506742,87.65091,-1,-1,10,65,-9999,1444109528.382785,15.8472900390625,37.53750610351562,8.322952270507812,305.4183654785156,291.7071838378906,15,433517.2234569167,-0.01837158203125,0.9945220947265625,0.02288818359375,433517.224471625,-0.4346316183264578,-0.1202590337641631,0.1556220846148893,433517.2085473334,-2.20219927054533,-2.931532973551839,-1.410247406384236,-0.4261235296726227,-0.171772375702858,0.1488842070102692,0.06350037455558777,-0.002871493110433221,-0.1377914398908615,XArbitraryZVertical,0.7060739972206691,0.2821924375479543,-0.2205457813875474,-0.6108899221232478,-0.03333374857902527,0.9871397018432617,0.1563461273908615,0,0,0,-1,1
2015-10-05 22:32:09.518,135,7046C08F-1AFD-4AA7-9EF7-651803F23386,1444109523.966167,37.87141867229481,-122.2584765506742,87.65091,-1,-1,10,65,-9999,1444109528.693834,10.63116455078125,41.46688842773438,-5.124267578125,302.533203125,288.822021484375,15,433517.24310175,-0.0418701171875,0.95928955078125,0.0331573486328125,433517.2563201667,-0.3793073761572607,-0.1075259279602763,0.1419736503443422,433517.2403958333,-2.253221546166512,-2.986214013896421,-1.397504824619803,-0.429318755865097,-0.1239659711718559,0.20440374314785,0.007167574018239975,-0.01502134464681149,-0.1593772023916245,XArbitraryZVertical,0.7107161526972585,0.2829429031845276,-0.2219345381241429,-0.6046246146332138,-0.02668356522917747,0.9850225448608398,0.170348271727562,0,0,0,-1,1
2015-10-05 22:32:09.680,136,7046C08F-1AFD-4AA7-9EF7-651803F23386,1444109523.966167,37.87141867229481,-122.2584765506742,87.65091,-1,-1,10,65,-9999,1444109528.797215,12.66339111328125,40.21353149414062,-5.553756713867188,291.905517578125,278.1943359375,15,433517.2627565,-0.0712127685546875,0.9268798828125,0.025115966796875,433517.272244375,-0.3391229384690551,-0.08606990432194388,0.1032004217177696,433517.2563201667,-2.274997567661439,-3.009392609790191,-1.39154205577101,-0.3821131587028503,-0.1086522564291954,0.1752281486988068,-0.04023383930325508,-0.03842028602957726,-0.1594823896884918,XArbitraryZVertical,0.7128814652710649,0.2831431781893832,-0.222523334468638,-0.601758525269708,-0.02350212074816227,0.9839769005775452,0.1767400801181793,0,0,0,-1,1
2015-10-05 22:32:09.813,137,7046C08F-1AFD-4AA7-9EF7-651803F23386,1444109523.966167,37.87141867229481,-122.2584765506742,87.65091,-1,-1,10,65,-9999,1444109529.005376,12.66339111328125,40.82327270507812,-5.322494506835938,295.6658935546875,281.9547119140625,15,433517.2824042917,-0.0831298828125,0.943572998046875,0.054168701171875,433517.2881686667,-0.3399221531121879,-0.03021436151527598,0.01279648903783074,433517.272244375,-2.291923197927045,-3.027291743089606,-1.386155134216301,-0.3419286906719208,-0.0871962308883667,0.136454850435257,-0.05027348920702934,-0.0561223067343235,-0.1572798788547516,XArbitraryZVertical,0.7147967876378859,0.2833080900247735,-0.2228738749826013,-0.5992739893899405,-0.02093927934765816,0.9830021858215332,0.1823958456516266,0,0,0,-1,1
2015-10-05 22:32:09.983,138,7046C08F-1AFD-4AA7-9EF7-651803F23386,1444109523.966167,37.87141867229481,-122.2584765506742,87.65091,-1,-1,10,65,-9999,1444109529.10883,14.2384033203125,40.5692138671875,-2.233291625976562,294.9525756835938,281.2413940429688,15,433517.3020505834,-0.072906494140625,0.9590606689453125,0.0456085205078125,433517.3040929167,-0.3698278542571237,-0.05360969905940408,-0.04558186626946922,433517.2881686667,-2.301772376382399,-3.037913158376957,-1.3809710089167,-0.342727929353714,-0.03134068101644516,0.04605080932378769,-0.06360190361738205,-0.03846421092748642,-0.1335054188966751,XArbitraryZVertical,0.7164709248052668,0.2837366278616048,-0.2228293874958257,-0.5970845869612338,-0.01952797919511795,0.9820371866226196,0.1876741200685501,0,0,0,-1,1
2015-10-05 22:32:11.431,139,7046C08F-1AFD-4AA7-9EF7-651803F23386,1444109523.966167,37.87141867229481,-122.2584765506742,87.65091,-1,-1,10,65,-9999,1444109529.212832,16.4400634765625,40.26431274414062,-0.085723876953125,295.0709228515625,281.3597412109375,15,433517.3216952501,-0.051177978515625,0.9368743896484375,0.0265655517578125,433517.3200171667,-0.4046625339475781,-0.02997148122386075,-0.1184504810678903,433517.3040929167,-2.30592563566698,-3.042769413912689,-1.375196262991184,-0.3726336061954498,-0.05473601445555687,-0.01232768502086401,-0.05373093113303185,-0.02187055163085461,-0.1477984040975571,XArbitraryZVertical,0.7181495741220288,0.2845428809067526,-0.2223433333185735,-0.594861311771442,-0.01917556300759315,0.9809312224388123,0.1934069246053696,0,0,0,-1,1
2015-10-05 22:32:11.658,140,7046C08F-1AFD-4AA7-9EF7-651803F23386,1444109523.966167,37.87141867229481,-122.2584765506742,87.65091,-1,-1,10,65,-9999,1444109529.395356,18.79409790039062,38.24884033203125,9.446258544921875,302.1914367675781,288.4802551269531,15,433517.3413428334,-0.0219573974609375,0.914306640625,-0.0189971923828125,433517.3518657084,-0.3657087429990981,0.1098972065948828,-0.2514540722286276,433517.3359414167,-2.296064191949852,-3.033321527508475,-1.361981403649348,-0.4048799574375153,0.02704354375600815,-0.1613354831933975,-0.03787136077880859,-0.05252653732895851,-0.2226273715496063,XArbitraryZVertical,0.7214837836616939,0.287236090001615,-0.2195817699870986,-0.590542483487127,-0.02240085601806641,0.9782772660255432,0.2060868442058563,0,0,0,-1,1
2015-10-05 22:32:11.832,141,7046C08F-1AFD-4AA7-9EF7-651803F23386,1444109523.966167,37.87141867229481,-122.2584765506742,87.65091,-1,-1,10,65,-9999,1444109529.498673,19.40377807617188,37.57131958007812,11.62686157226562,306.8763427734375,293.1651611328125,15,433517.360999375,0.0046539306640625,0.9170379638671875,-0.040008544921875,433517.3677899584,-0.3110676016495063,0.0770465819165374,-0.2827145234200867,433517.3518657084,-2.283772647284931,-3.020304130242546,-1.355327888550442,-0.3685144782066345,0.1087708994746208,-0.218200221657753,0.02885928750038147,-0.07169446349143982,-0.2684477269649506,XArbitraryZVertical,0.7229744615947681,0.2888340420227099,-0.2173283004559662,-0.5887709519596908,-0.02586856484413147,0.9768763184547424,0.2122343480587006,0,0,0,-1,1
2015-10-05 22:32:11.836,142,7046C08F-1AFD-4AA7-9EF7-651803F23386,1444109523.966167,37.87141867229481,-122.2584765506742,87.65091,-1,-1,10,65,-9999,1444109529.524314,19.55618286132812,37.927001953125,11.14781188964844,306.4757080078125,292.7645263671875,15,433517.3806446251,0.036163330078125,0.950836181640625,-0.03143310546875,433517.3837142084,-0.2400128658695382,0.004102865975376074,-0.273280807890699,433517.3677899584,-2.26854736370037,-3.003910515089623,-1.349716943202453,-0.3138733506202698,0.07592027634382248,-0.2494607269763947,0.03474996984004974,-0.05862336233258247,-0.2572162747383118,XArbitraryZVertical,0.7240724314900078,0.2903842014015003,-0.2148564419098564,-0.5875651784290984,-0.03009603731334209,0.9756613373756409,0.217207744717598,0,0,0,-1,1
2015-10-05 22:32:11.842,143,7046C08F-1AFD-4AA7-9EF7-651803F23386,1444109523.966167,37.87141867229481,-122.2584765506742,87.65091,-1,-1,10,65,-9999,1444109529.576334,19.03115844726562,39.09567260742188,9.380203247070312,308.1332092285156,294.4220275878906,15,433517.4002985,0.0735015869140625,1.003646850585938,-0.04852294921875,433517.3996385,-0.2119522027278093,-0.1002440465916726,-0.1645625827103943,433517.3837142084,-2.273516089414017,-3.008820770825785,-1.376646082485451,-0.2428235560655594,0.002942080376669765,-0.2400059700012207,0.06170418858528137,-0.03037578798830509,-0.2226678729057312,XArbitraryZVertical,0.7168777487118178,0.2858385488026668,-0.2200729365074585,-0.5966158898632066,-0.02554085850715637,0.9812119603157043,0.1912347674369812,0,0,0,-1,1
2015-10-05 22:32:11.847,144,7046C08F-1AFD-4AA7-9EF7-651803F23386,1444109523.966167,37.87141867229481,-122.2584765506742,87.65091,-1,-1,10,65,-9999,1444109529.627569,18.06585693359375,39.9932861328125,6.291000366210938,309.4934692382812,295.7822875976562,15,433517.41994075,0.0315704345703125,1.057723999023438,-0.079864501953125,433517.431487,-0.04529957119392082,-0.2013701321363794,-0.03052541873059724,433517.41556275,-2.258533327364314,-2.997191301822027,-1.370463229280914,-0.1268460601568222,-0.1665963530540466,-0.0386488065123558,0.08008813858032227,0.05619350075721741,-0.2585244178771973,XArbitraryZVertical,0.7177036829827258,0.288727831903483,-0.219229812237809,-0.5945384360523216,-0.02863549999892712,0.980000376701355,0.1969246715307236,0,0,0,-1,1
2015-10-05 22:32:11.851,145,7046C08F-1AFD-4AA7-9EF7-651803F23386,1444109523.966167,37.87141867229481,-122.2584765506742,87.65091,-1,-1,10,65,-9999,1444109529.653879,17.30377197265625,40.17959594726562,4.523361206054688,311.8669738769531,298.1557922363281,15,433517.4395849584,-0.010955810546875,1.083999633789062,-0.1295013427734375,433517.4474112917,0.02870781128661816,-0.2034300872395557,-0.0154234311370849,433517.431487,-2.271764650946084,-3.013876521890194,-1.401233249365417,-0.048115573823452,-0.2025633007287979,0.002767993602901697,0.02710900641977787,0.09644895046949387,-0.2794530987739563,XArbitraryZVertical,0.7092006056307018,0.2841181895095503,-0.2268333821673026,-0.604034744114462,-0.02149377204477787,0.985658586025238,0.1673772931098938,0,0,0,-1,1
2015-10-05 22:32:11.856,146,7046C08F-1AFD-4AA7-9EF7-651803F23386,1444109523.966167,37.87141867229481,-122.2584765506742,87.65091,-1,-1,10,65,-9999,1444109529.679528,16.59249877929688,39.976318359375,2.706192016601562,313.9844665527344,300.2732849121094,15,433517.4592310833,-0.017364501953125,1.111083984375,-0.1225128173828125,433517.4633355417,0.1647367534456855,-0.1169351424076352,-0.03675029146254845,433517.4474112917,-2.273742984501371,-3.019130759263495,-1.401168359441593,0.02589181624352932,-0.2046232521533966,0.01786991022527218,0.009666041471064091,0.09835199266672134,-0.2970527410507202,XArbitraryZVertical,0.7089028073539171,0.285013167378555,-0.2280873192039498,-0.6034902476137907,-0.02062185294926167,0.9856476187705994,0.1675513982772827,0,0,0,-1,1
2015-10-05 22:32:11.861,147,7046C08F-1AFD-4AA7-9EF7-651803F23386,1444109523.966167,37.87141867229481,-122.2584765506742,87.65091,-1,-1,10,65,-9999,1444109529.705294,15.35617065429688,39.9932861328125,1.136795043945312,315.2235412597656,301.5123596191406,15,433517.4788802083,-0.030609130859375,1.210403442382812,-0.102996826171875,433517.4792598333,0.2432296981502449,-0.1582785878022433,-0.09735664733780869,433517.4633355417,-2.272911687857653,-3.020600209370672,-1.402995795886753,0.1619207710027695,-0.1181283071637154,-0.003457091050222516,0.002793684368953109,0.1251294910907745,-0.2883059978485107,XArbitraryZVertical,0.7081004292441816,0.2854651980275936,-0.229184452069239,-0.6038028566916648,-0.02015818655490875,0.9859545230865479,0.1657931953668594,0,0,0,-1,1
2015-10-05 22:32:11.991,148,7046C08F-1AFD-4AA7-9EF7-651803F23386,1444109523.966167,37.87141867229481,-122.2584765506742,87.65091,-1,-1,10,65,-9999,1444109529.782905,11.29168701171875,39.1802978515625,-0.6804046630859375,319.4783325195312,305.7671508789062,15,433517.4985299167,-0.0850067138671875,1.283294677734375,0.0103759765625,433517.511108375,0.3503428361415589,-0.5304215279949729,-0.1894610083737631,433517.4951840417,-2.250947815635816,-3.004644266870523,-1.410369695835535,0.297089010477066,-0.2534009218215942,-0.1413104683160782,-0.02702039107680321,0.2679219543933868,-0.2014719247817993,XArbitraryZVertical,0.7047174746384229,0.2872197160191965,-0.2315257878971194,-0.6060312906176825,-0.02180773392319679,0.987159252166748,0.1582437753677368,0,0,0,-1,1
2015-10-05 22:32:12.174,149,7046C08F-1AFD-4AA7-9EF7-651803F23386,1444109523.966167,37.87141867229481,-122.2584765506742,87.65091,-1,-1,10,65,-9999,1444109529.965049,7.76904296875,38.67218017578125,3.086135864257812,330.584716796875,316.87353515625,15,433517.5181804583,-0.1178131103515625,1.276077270507812,0.0673980712890625,433517.5270325834,0.5276608952089967,-0.8632647326136211,-0.136185536031164,433517.511108375,-2.23087693474493,-2.991600946928292,-1.415194594493239,0.347526878118515,-0.5316146612167358,-0.156168133020401,-0.07889293879270554,0.3107265532016754,-0.1060238927602768,XArbitraryZVertical,0.701992325429904,0.289523862837431,-0.2339240807435239,-0.6071756190209925,-0.02315784245729446,0.9879184365272522,0.1532345861196518,0,0,0,-1,1
2015-10-05 22:32:12.302,150,7046C08F-1AFD-4AA7-9EF7-651803F23386,1444109523.966167,37.87141867229481,-122.2584765506742,87.65091,-1,-1,10,65,-9999,1444109530.119698,10.4324951171875,38.43838500976562,5.769424438476562,329.3367309570312,315.6255493164062,15,433517.5378388333,-0.141845703125,1.1829833984375,0.123046875,433517.5429568334,0.7754406040816421,-1.091791917333865,-0.156083077799582,433517.5270325834,-2.211144565381498,-2.984164833921361,-1.422064681096616,0.5248449444770813,-0.864457905292511,-0.1028927341103554,-0.09458108246326447,0.2871174514293671,-0.07895336300134659,XArbitraryZVertical,0.6980874753541311,0.2930010103512268,-0.2386251127467468,-0.6081795296238421,-0.02323202788829803,0.9889598488807678,0.1463514268398285,0,0,0,-1,1
2015-10-05 22:32:12.468,151,7046C08F-1AFD-4AA7-9EF7-651803F23386,1444109523.966167,37.87141867229481,-122.2584765506742,87.65091,-1,-1,10,65,-9999,1444109530.223472,9.3656005859375,39.30203247070312,6.94244384765625,330.5224304199219,316.8112487792969,15,433517.5574774167,-0.17486572265625,1.087249755859375,0.1842193603515625,433517.5588811667,0.9831184332598741,-1.378389862255506,-0.24975417650483,433517.5429568334,-2.186546239044275,-2.976062378285213,-1.432631522000794,0.7726246118545532,-1.092985033988953,-0.1227904111146927,-0.1191519051790237,0.1925129741430283,-0.01279621012508869,XArbitraryZVertical,0.6925129056181129,0.297232936060269,-0.2453549155774303,-0.609819172111998,-0.02269379422068596,0.9904704093933105,0.1358430832624435,0,0,0,-1,1
2015-10-05 22:32:12.693,152,7046C08F-1AFD-4AA7-9EF7-651803F23386,1444109523.966167,37.87141867229481,-122.2584765506742,87.65091,-1,-1,10,65,-9999,1444109530.404574,11.36392211914062,36.79571533203125,12.75801086425781,330.3966064453125,316.6854248046875,15,433517.57712325,-0.1236114501953125,0.944854736328125,0.2144012451171875,433517.590729625,1.181057082331687,-1.854879715015284,-0.5479762869524482,433517.574805375,-2.074946111850964,-2.911407101080116,-1.462139816694386,1.115746855735779,-1.725370764732361,-0.3415657877922058,-0.1409530639648438,0.02176645398139954,0.09102694690227509,XArbitraryZVertical,0.6758112003548721,0.3099524119002954,-0.263574640491759,-0.6146032319486744,-0.02474211901426315,0.9941027164459229,0.1055825501680374,0,0,0,-1,1
2015-10-05 22:32:12.763,153,7046C08F-1AFD-4AA7-9EF7-651803F23386,1444109523.966167,37.87141867229481,-122.2584765506742,87.65091,-1,-1,10,65,-9999,1444109530.457303,11.04214477539062,35.96591186523438,14.69102478027344,333.6017456054688,319.8905639648438,15,433517.5967758333,0.06341552734375,0.8249969482421875,0.279266357421875,433517.6066539584,1.186876888261837,-1.641072886904344,-0.7220090704991643,433517.590729625,-1.955706370421485,-2.821997492708022,-1.478016926219959,1.17824113368988,-1.856072902679443,-0.5146839022636414,-0.01027509570121765,-0.1227284967899323,0.1611447483301163,XArbitraryZVertical,0.665046229913712,0.3188902728217604,-0.2740560920803679,-0.6171837363142987,-0.02910783886909485,0.9956991076469421,0.08795499056577682,0,0,0,-1,1
2015-10-05 22:32:12.965,154,7046C08F-1AFD-4AA7-9EF7-651803F23386,1444109523.966167,37.87141867229481,-122.2584765506742,87.65091,-1,-1,10,65,-9999,1444109530.585649,9.247039794921875,33.76446533203125,19.31697082519531,341.9567260742188,328.2455444335938,15,433517.6164262083,0.1538238525390625,0.7870025634765625,0.2574462890625,433517.6225782083,1.169575928556246,-1.358654506997474,-0.8669390959696034,433517.6066539584,-1.761956237498553,-2.656622124240148,-1.491489230949568,1.18406093120575,-1.642266035079956,-0.6887168288230896,0.1612766981124878,-0.1910249292850494,0.2024028897285461,XArbitraryZVertical,0.6537357672798122,0.3281369059634109,-0.2831178877649365,-0.6203224799661669,-0.0369328185915947,0.9968568682670593,0.07008856534957886,0,0,0,-1,1
2015-10-05 22:32:13.109,155,7046C08F-1AFD-4AA7-9EF7-651803F23386,1444109523.966167,37.87141867229481,-122.2584765506742,87.65091,-1,-1,10,65,-9999,1444109530.688735,7.858428955078125,32.20648193359375,21.66307067871094,346.9894714355469,333.2782897949219,15,433517.6360842084,0.1643524169921875,0.80255126953125,0.2342376708984375,433517.6385024583,1.048798909960062,-1.153668068416876,-0.9534271165826897,433517.6225782083,-1.480272394179352,-2.398758079277126,-1.499768825104132,1.166760087013245,-1.359847664833069,-0.8336468935012817,0.2018249332904816,-0.2104760408401489,0.2051746547222137,XArbitraryZVertical,0.642491622483764,0.3366605585162945,-0.2898219423987183,-0.6243936459333416,-0.04800108820199966,0.9974786043167114,0.05227163434028625,0,0,0,-1,1
